timestamp,world_index,world_index_corrected,orientation_x,orientation_y,orientation_z,orientation_w,orientation_covariance_0,orientation_covariance_1,orientation_covariance_2,orientation_covariance_3,orientation_covariance_4,orientation_covariance_5,orientation_covariance_6,orientation_covariance_7,orientation_covariance_8,angular_velocity_x,angular_velocity_y,angular_velocity_z,angular_covariance_0,angular_covariance_1,angular_covariance_2,angular_covariance_3,angular_covariance_4,angular_covariance_5,angular_covariance_6,angular_covariance_7,angular_covariance_8,linear_acceleration_x,linear_acceleration_y,linear_acceleration_z,linear_covariance_0,linear_covariance_1,linear_covariance_2,linear_covariance_3,linear_covariance_4,linear_covariance_5,linear_covariance_6,linear_covariance_7,linear_covariance_8
0.011393200,0,0,0.71376594,-0.67586200,0.01818901,0.18280563,0.0,0.0,0.0,0.0,0.0,0.0,0.0,0.0,0.0,-2.125000,-0.875000,-1.000000,0.0,0.0,0.0,0.0,0.0,0.0,0.0,0.0,0.0,-0.280762,-0.984375,0.092773,0.0,0.0,0.0,0.0,0.0,0.0,0.0,0.0,0.0
0.026778963,0,0,0.71356224,-0.67608664,0.01788331,0.18280035,0.0,0.0,0.0,0.0,0.0,0.0,0.0,0.0,0.0,-2.500000,-0.875000,-0.437500,0.0,0.0,0.0,0.0,0.0,0.0,0.0,0.0,0.0,-0.271973,-0.981934,0.093750,0.0,0.0,0.0,0.0,0.0,0.0,0.0,0.0,0.0
0.049391842,1,1,0.71351945,-0.67610393,0.01763962,0.18292710,0.0,0.0,0.0,0.0,0.0,0.0,0.0,0.0,0.0,-1.125000,-1.187500,0.437500,0.0,0.0,0.0,0.0,0.0,0.0,0.0,0.0,0.0,-0.267578,-0.977539,0.096680,0.0,0.0,0.0,0.0,0.0,0.0,0.0,0.0,0.0
0.071453570,2,2,0.71354849,-0.67601258,0.01751676,0.18316303,0.0,0.0,0.0,0.0,0.0,0.0,0.0,0.0,0.0,-0.500000,-1.312500,0.750000,0.0,0.0,0.0,0.0,0.0,0.0,0.0,0.0,0.0,-0.273926,-0.977539,0.098145,0.0,0.0,0.0,0.0,0.0,0.0,0.0,0.0,0.0
0.086801492,2,2,0.71350006,-0.67596349,0.01751707,0.18353248,0.0,0.0,0.0,0.0,0.0,0.0,0.0,0.0,0.0,-0.437500,-1.375000,1.250000,0.0,0.0,0.0,0.0,0.0,0.0,0.0,0.0,0.0,-0.280273,-0.974121,0.090820,0.0,0.0,0.0,0.0,0.0,0.0,0.0,0.0,0.0
0.109009264,3,3,0.71354890,-0.67582986,0.01751677,0.18383451,0.0,0.0,0.0,0.0,0.0,0.0,0.0,0.0,0.0,0.437500,-1.375000,0.625000,0.0,0.0,0.0,0.0,0.0,0.0,0.0,0.0,0.0,-0.282715,-0.975586,0.094238,0.0,0.0,0.0,0.0,0.0,0.0,0.0,0.0,0.0
0.131465843,4,4,0.71344967,-0.67585150,0.01745629,0.18414558,0.0,0.0,0.0,0.0,0.0,0.0,0.0,0.0,0.0,-0.687500,-1.187500,1.500000,0.0,0.0,0.0,0.0,0.0,0.0,0.0,0.0,0.0,-0.274414,-0.969238,0.086914,0.0,0.0,0.0,0.0,0.0,0.0,0.0,0.0,0.0
0.154227143,4,4,0.71326076,-0.67596808,0.01745615,0.18444926,0.0,0.0,0.0,0.0,0.0,0.0,0.0,0.0,0.0,-1.000000,-1.125000,1.875000,0.0,0.0,0.0,0.0,0.0,0.0,0.0,0.0,0.0,-0.273438,-0.977539,0.085938,0.0,0.0,0.0,0.0,0.0,0.0,0.0,0.0,0.0
0.169011320,5,5,0.71332397,-0.67584806,0.01757828,0.18463293,0.0,0.0,0.0,0.0,0.0,0.0,0.0,0.0,0.0,1.000000,-0.562500,1.812500,0.0,0.0,0.0,0.0,0.0,0.0,0.0,0.0,0.0,-0.267578,-0.960938,0.078125,0.0,0.0,0.0,0.0,0.0,0.0,0.0,0.0,0.0
0.194532832,5,5,0.71319854,-0.67590592,0.01788337,0.18487620,0.0,0.0,0.0,0.0,0.0,0.0,0.0,0.0,0.0,0.375000,0.312500,2.312500,0.0,0.0,0.0,0.0,0.0,0.0,0.0,0.0,0.0,-0.276367,-0.971191,0.078125,0.0,0.0,0.0,0.0,0.0,0.0,0.0,0.0,0.0
0.214545538,6,6,0.71288870,-0.67608460,0.01843257,0.18536327,0.0,0.0,0.0,0.0,0.0,0.0,0.0,0.0,0.0,-0.687500,0.000000,3.812500,0.0,0.0,0.0,0.0,0.0,0.0,0.0,0.0,0.0,-0.290039,-0.970703,0.072266,0.0,0.0,0.0,0.0,0.0,0.0,0.0,0.0,0.0
0.229016451,6,6,0.71258539,-0.67633051,0.01867676,0.18560789,0.0,0.0,0.0,0.0,0.0,0.0,0.0,0.0,0.0,-1.625000,0.500000,2.312500,0.0,0.0,0.0,0.0,0.0,0.0,0.0,0.0,0.0,-0.280273,-0.969727,0.083984,0.0,0.0,0.0,0.0,0.0,0.0,0.0,0.0,0.0
0.251667140,7,7,0.71217384,-0.67677267,0.01892131,0.18555095,0.0,0.0,0.0,0.0,0.0,0.0,0.0,0.0,0.0,-3.250000,1.750000,1.812500,0.0,0.0,0.0,0.0,0.0,0.0,0.0,0.0,0.0,-0.276855,-0.984863,0.083496,0.0,0.0,0.0,0.0,0.0,0.0,0.0,0.0,0.0
0.274509526,8,8,0.71193082,-0.67701789,0.01928756,0.18555124,0.0,0.0,0.0,0.0,0.0,0.0,0.0,0.0,0.0,-2.062500,1.875000,2.250000,0.0,0.0,0.0,0.0,0.0,0.0,0.0,0.0,0.0,-0.280273,-0.988770,0.093750,0.0,0.0,0.0,0.0,0.0,0.0,0.0,0.0,0.0
0.296527824,9,9,0.71172666,-0.67724200,0.01959217,0.18548472,0.0,0.0,0.0,0.0,0.0,0.0,0.0,0.0,0.0,-1.687500,1.687500,0.687500,0.0,0.0,0.0,0.0,0.0,0.0,0.0,0.0,0.0,-0.293945,-1.000977,0.088379,0.0,0.0,0.0,0.0,0.0,0.0,0.0,0.0,0.0
0.311358308,9,9,0.71168514,-0.67738265,0.01965374,0.18512359,0.0,0.0,0.0,0.0,0.0,0.0,0.0,0.0,0.0,-1.250000,1.875000,-1.500000,0.0,0.0,0.0,0.0,0.0,0.0,0.0,0.0,0.0,-0.291992,-0.979004,0.091309,0.0,0.0,0.0,0.0,0.0,0.0,0.0,0.0,0.0
0.334418190,10,10,0.71167704,-0.67749701,0.01947041,0.18475526,0.0,0.0,0.0,0.0,0.0,0.0,0.0,0.0,0.0,-2.312500,1.375000,-2.250000,0.0,0.0,0.0,0.0,0.0,0.0,0.0,0.0,0.0,-0.283691,-0.979004,0.106445,0.0,0.0,0.0,0.0,0.0,0.0,0.0,0.0,0.0
0.348989316,10,10,0.71148749,-0.67773502,0.01928713,0.18463152,0.0,0.0,0.0,0.0,0.0,0.0,0.0,0.0,0.0,-3.500000,0.437500,0.187500,0.0,0.0,0.0,0.0,0.0,0.0,0.0,0.0,0.0,-0.265137,-0.974121,0.106934,0.0,0.0,0.0,0.0,0.0,0.0,0.0,0.0,0.0
0.371384873,11,11,0.71167788,-0.67749781,0.01940940,0.18475548,0.0,0.0,0.0,0.0,0.0,0.0,0.0,0.0,0.0,0.312500,0.187500,1.750000,0.0,0.0,0.0,0.0,0.0,0.0,0.0,0.0,0.0,-0.271973,-0.984863,0.103027,0.0,0.0,0.0,0.0,0.0,0.0,0.0,0.0,0.0
0.394203986,11,11,0.71221554,-0.67687637,0.01965322,0.18493556,0.0,0.0,0.0,0.0,0.0,0.0,0.0,0.0,0.0,3.875000,-0.187500,1.625000,0.0,0.0,0.0,0.0,0.0,0.0,0.0,0.0,0.0,-0.276855,-0.979492,0.099609,0.0,0.0,0.0,0.0,0.0,0.0,0.0,0.0,0.0
0.409252306,12,12,0.71252372,-0.67651301,0.01983641,0.18505841,0.0,0.0,0.0,0.0,0.0,0.0,0.0,0.0,0.0,3.062500,-0.187500,1.437500,0.0,0.0,0.0,0.0,0.0,0.0,0.0,0.0,0.0,-0.278320,-0.973145,0.084961,0.0,0.0,0.0,0.0,0.0,0.0,0.0,0.0,0.0
0.431967184,13,13,0.71254599,-0.67641209,0.02014221,0.18530835,0.0,0.0,0.0,0.0,0.0,0.0,0.0,0.0,0.0,0.562500,0.125000,2.312500,0.0,0.0,0.0,0.0,0.0,0.0,0.0,0.0,0.0,-0.283203,-0.981445,0.089355,0.0,0.0,0.0,0.0,0.0,0.0,0.0,0.0,0.0
0.454484539,13,13,0.71259353,-0.67621616,0.02056908,0.18579312,0.0,0.0,0.0,0.0,0.0,0.0,0.0,0.0,0.0,1.625000,-0.125000,3.500000,0.0,0.0,0.0,0.0,0.0,0.0,0.0,0.0,0.0,-0.285645,-0.971191,0.083008,0.0,0.0,0.0,0.0,0.0,0.0,0.0,0.0,0.0
0.468986737,14,14,0.71296126,-0.67572931,0.02105741,0.18609870,0.0,0.0,0.0,0.0,0.0,0.0,0.0,0.0,0.0,3.750000,0.125000,3.187500,0.0,0.0,0.0,0.0,0.0,0.0,0.0,0.0,0.0,-0.282227,-0.981934,0.087891,0.0,0.0,0.0,0.0,0.0,0.0,0.0,0.0,0.0
0.491416776,14,14,0.71331943,-0.67523341,0.02160649,0.18646281,0.0,0.0,0.0,0.0,0.0,0.0,0.0,0.0,0.0,4.062500,0.437500,3.625000,0.0,0.0,0.0,0.0,0.0,0.0,0.0,0.0,0.0,-0.279785,-0.960938,0.088379,0.0,0.0,0.0,0.0,0.0,0.0,0.0,0.0,0.0
0.513929796,15,15,0.71367412,-0.67473423,0.02233856,0.18682601,0.0,0.0,0.0,0.0,0.0,0.0,0.0,0.0,0.0,4.000000,0.687500,3.875000,0.0,0.0,0.0,0.0,0.0,0.0,0.0,0.0,0.0,-0.289551,-0.969238,0.088867,0.0,0.0,0.0,0.0,0.0,0.0,0.0,0.0,0.0
0.529208952,15,15,0.71386028,-0.67443195,0.02294900,0.18713198,0.0,0.0,0.0,0.0,0.0,0.0,0.0,0.0,0.0,2.437500,1.062500,4.062500,0.0,0.0,0.0,0.0,0.0,0.0,0.0,0.0,0.0,-0.285645,-0.971191,0.091309,0.0,0.0,0.0,0.0,0.0,0.0,0.0,0.0,0.0
0.551560058,16,16,0.71404883,-0.67407088,0.02368159,0.18762169,0.0,0.0,0.0,0.0,0.0,0.0,0.0,0.0,0.0,2.687500,0.750000,4.875000,0.0,0.0,0.0,0.0,0.0,0.0,0.0,0.0,0.0,-0.289062,-0.980957,0.094238,0.0,0.0,0.0,0.0,0.0,0.0,0.0,0.0,0.0
0.574042128,17,17,0.71428723,-0.67369926,0.02416968,0.18798639,0.0,0.0,0.0,0.0,0.0,0.0,0.0,0.0,0.0,2.812500,0.437500,3.937500,0.0,0.0,0.0,0.0,0.0,0.0,0.0,0.0,0.0,-0.285645,-0.983398,0.096680,0.0,0.0,0.0,0.0,0.0,0.0,0.0,0.0,0.0
0.589385499,17,17,0.71453582,-0.67339829,0.02471914,0.18804859,0.0,0.0,0.0,0.0,0.0,0.0,0.0,0.0,0.0,3.000000,1.687500,3.125000,0.0,0.0,0.0,0.0,0.0,0.0,0.0,0.0,0.0,-0.283203,-0.982910,0.094238,0.0,0.0,0.0,0.0,0.0,0.0,0.0,0.0,0.0
0.611430658,18,18,0.71505041,-0.67287372,0.02545250,0.18787240,0.0,0.0,0.0,0.0,0.0,0.0,0.0,0.0,0.0,5.000000,2.937500,2.437500,0.0,0.0,0.0,0.0,0.0,0.0,0.0,0.0,0.0,-0.286621,-0.995117,0.092285,0.0,0.0,0.0,0.0,0.0,0.0,0.0,0.0,0.0
0.634422148,18,19,0.71568999,-0.67223346,0.02624481,0.18761991,0.0,0.0,0.0,0.0,0.0,0.0,0.0,0.0,0.0,6.750000,3.437500,2.500000,0.0,0.0,0.0,0.0,0.0,0.0,0.0,0.0,0.0,-0.281738,-0.970703,0.084473,0.0,0.0,0.0,0.0,0.0,0.0,0.0,0.0,0.0
0.649760829,18,19,0.71611566,-0.67174371,0.02716027,0.18761949,0.0,0.0,0.0,0.0,0.0,0.0,0.0,0.0,0.0,5.187500,2.875000,3.187500,0.0,0.0,0.0,0.0,0.0,0.0,0.0,0.0,0.0,-0.293945,-0.959473,0.087891,0.0,0.0,0.0,0.0,0.0,0.0,0.0,0.0,0.0
0.672101119,18,20,0.71599244,-0.67186470,0.02783160,0.18755816,0.0,0.0,0.0,0.0,0.0,0.0,0.0,0.0,0.0,-0.500000,2.937500,2.500000,0.0,0.0,0.0,0.0,0.0,0.0,0.0,0.0,0.0,-0.286621,-0.945801,0.097168,0.0,0.0,0.0,0.0,0.0,0.0,0.0,0.0,0.0
0.693951207,18,20,0.71535104,-0.67262530,0.02795484,0.18726084,0.0,0.0,0.0,0.0,0.0,0.0,0.0,0.0,0.0,-6.125000,3.000000,0.562500,0.0,0.0,0.0,0.0,0.0,0.0,0.0,0.0,0.0,-0.291504,-0.980469,0.107422,0.0,0.0,0.0,0.0,0.0,0.0,0.0,0.0,0.0
0.709030595,18,21,0.71471745,-0.67339689,0.02807601,0.18688854,0.0,0.0,0.0,0.0,0.0,0.0,0.0,0.0,0.0,-6.500000,3.062500,0.000000,0.0,0.0,0.0,0.0,0.0,0.0,0.0,0.0,0.0,-0.300781,-1.004883,0.114258,0.0,0.0,0.0,0.0,0.0,0.0,0.0,0.0,0.0
0.731439052,18,22,0.71472883,-0.67340762,0.02832060,0.18676945,0.0,0.0,0.0,0.0,0.0,0.0,0.0,0.0,0.0,-1.187500,1.875000,0.187500,0.0,0.0,0.0,0.0,0.0,0.0,0.0,0.0,0.0,-0.313965,-1.007324,0.120117,0.0,0.0,0.0,0.0,0.0,0.0,0.0,0.0,0.0
0.754708876,18,22,0.71553660,-0.67256656,0.02868738,0.18665111,0.0,0.0,0.0,0.0,0.0,0.0,0.0,0.0,0.0,4.812500,1.437500,-0.562500,0.0,0.0,0.0,0.0,0.0,0.0,0.0,0.0,0.0,-0.313965,-0.988281,0.123535,0.0,0.0,0.0,0.0,0.0,0.0,0.0,0.0,0.0
0.769345258,18,23,0.71631156,-0.67181675,0.02893078,0.18634110,0.0,0.0,0.0,0.0,0.0,0.0,0.0,0.0,0.0,5.250000,1.562500,-1.312500,0.0,0.0,0.0,0.0,0.0,0.0,0.0,0.0,0.0,-0.296387,-0.951172,0.111328,0.0,0.0,0.0,0.0,0.0,0.0,0.0,0.0,0.0
0.791469028,19,23,0.71655909,-0.67157578,0.02917506,0.18621991,0.0,0.0,0.0,0.0,0.0,0.0,0.0,0.0,0.0,1.625000,1.375000,-0.375000,0.0,0.0,0.0,0.0,0.0,0.0,0.0,0.0,0.0,-0.302734,-0.958008,0.110840,0.0,0.0,0.0,0.0,0.0,0.0,0.0,0.0,0.0
0.814529393,19,24,0.71631675,-0.67169955,0.02954135,0.18664763,0.0,0.0,0.0,0.0,0.0,0.0,0.0,0.0,0.0,-1.812500,0.000000,2.125000,0.0,0.0,0.0,0.0,0.0,0.0,0.0,0.0,0.0,-0.312988,-0.966309,0.101562,0.0,0.0,0.0,0.0,0.0,0.0,0.0,0.0,0.0
0.829870738,19,24,0.71637307,-0.67145098,0.02996841,0.18725676,0.0,0.0,0.0,0.0,0.0,0.0,0.0,0.0,0.0,1.625000,-1.062500,3.375000,0.0,0.0,0.0,0.0,0.0,0.0,0.0,0.0,0.0,-0.314453,-0.973633,0.100098,0.0,0.0,0.0,0.0,0.0,0.0,0.0,0.0,0.0
0.851527216,19,25,0.71668213,-0.67102737,0.03015168,0.18756295,0.0,0.0,0.0,0.0,0.0,0.0,0.0,0.0,0.0,3.687500,-0.750000,2.562500,0.0,0.0,0.0,0.0,0.0,0.0,0.0,0.0,0.0,-0.285156,-0.965332,0.090332,0.0,0.0,0.0,0.0,0.0,0.0,0.0,0.0,0.0
0.875322060,19,26,0.71691824,-0.67089778,0.03009030,0.18713360,0.0,0.0,0.0,0.0,0.0,0.0,0.0,0.0,0.0,2.187500,1.187500,-0.500000,0.0,0.0,0.0,0.0,0.0,0.0,0.0,0.0,0.0,-0.279297,-0.978516,0.091309,0.0,0.0,0.0,0.0,0.0,0.0,0.0,0.0,0.0
0.889106204,19,26,0.71734524,-0.67065341,0.02990719,0.18640112,0.0,0.0,0.0,0.0,0.0,0.0,0.0,0.0,0.0,1.937500,1.875000,-2.187500,0.0,0.0,0.0,0.0,0.0,0.0,0.0,0.0,0.0,-0.274414,-0.988281,0.106934,0.0,0.0,0.0,0.0,0.0,0.0,0.0,0.0,0.0
0.913465315,19,27,0.71747254,-0.67071934,0.02954119,0.18573109,0.0,0.0,0.0,0.0,0.0,0.0,0.0,0.0,0.0,-0.500000,1.562500,-2.750000,0.0,0.0,0.0,0.0,0.0,0.0,0.0,0.0,0.0,-0.281738,-0.991211,0.113281,0.0,0.0,0.0,0.0,0.0,0.0,0.0,0.0,0.0
0.935380054,19,27,0.71747399,-0.67078173,0.02923607,0.18554836,0.0,0.0,0.0,0.0,0.0,0.0,0.0,0.0,0.0,-1.500000,-0.312500,-2.437500,0.0,0.0,0.0,0.0,0.0,0.0,0.0,0.0,0.0,-0.309082,-0.999023,0.117188,0.0,0.0,0.0,0.0,0.0,0.0,0.0,0.0,0.0
0.951517265,19,28,0.71783300,-0.67046982,0.02874750,0.18536339,0.0,0.0,0.0,0.0,0.0,0.0,0.0,0.0,0.0,0.687500,-1.187500,-2.625000,0.0,0.0,0.0,0.0,0.0,0.0,0.0,0.0,0.0,-0.296387,-0.980957,0.122559,0.0,0.0,0.0,0.0,0.0,0.0,0.0,0.0,0.0
0.971377725,19,28,0.71834194,-0.67006185,0.02826003,0.18494146,0.0,0.0,0.0,0.0,0.0,0.0,0.0,0.0,0.0,1.687500,-0.562500,-3.812500,0.0,0.0,0.0,0.0,0.0,0.0,0.0,0.0,0.0,-0.293457,-0.977539,0.122070,0.0,0.0,0.0,0.0,0.0,0.0,0.0,0.0,0.0
1.002734061,21,30,0.71857483,-0.66992927,0.02789337,0.18457235,0.0,0.0,0.0,0.0,0.0,0.0,0.0,0.0,0.0,0.750000,-0.312500,-3.187500,0.0,0.0,0.0,0.0,0.0,0.0,0.0,0.0,0.0,-0.291016,-0.965820,0.106445,0.0,0.0,0.0,0.0,0.0,0.0,0.0,0.0,0.0
1.009144623,21,30,0.71876205,-0.66974999,0.02777146,0.18451237,0.0,0.0,0.0,0.0,0.0,0.0,0.0,0.0,0.0,1.750000,-0.875000,-1.625000,0.0,0.0,0.0,0.0,0.0,0.0,0.0,0.0,0.0,-0.300293,-0.966309,0.093750,0.0,0.0,0.0,0.0,0.0,0.0,0.0,0.0,0.0
1.031644264,21,30,0.71901373,-0.66951287,0.02777175,0.18439223,0.0,0.0,0.0,0.0,0.0,0.0,0.0,0.0,0.0,3.062500,0.000000,-0.875000,0.0,0.0,0.0,0.0,0.0,0.0,0.0,0.0,0.0,-0.288086,-0.957520,0.087891,0.0,0.0,0.0,0.0,0.0,0.0,0.0,0.0,0.0
1.053980022,22,31,0.71916022,-0.66941775,0.02795344,0.18413871,0.0,0.0,0.0,0.0,0.0,0.0,0.0,0.0,0.0,2.000000,1.312500,-0.687500,0.0,0.0,0.0,0.0,0.0,0.0,0.0,0.0,0.0,-0.291992,-0.948242,0.089844,0.0,0.0,0.0,0.0,0.0,0.0,0.0,0.0,0.0
1.068978174,23,32,0.71905663,-0.66961806,0.02819830,0.18377723,0.0,0.0,0.0,0.0,0.0,0.0,0.0,0.0,0.0,-0.437500,2.375000,-0.687500,0.0,0.0,0.0,0.0,0.0,0.0,0.0,0.0,0.0,-0.291016,-0.958984,0.094238,0.0,0.0,0.0,0.0,0.0,0.0,0.0,0.0,0.0
1.091833745,23,32,0.71895037,-0.66981589,0.02856514,0.18341505,0.0,0.0,0.0,0.0,0.0,0.0,0.0,0.0,0.0,-0.750000,3.000000,-0.187500,0.0,0.0,0.0,0.0,0.0,0.0,0.0,0.0,0.0,-0.290527,-0.954102,0.100098,0.0,0.0,0.0,0.0,0.0,0.0,0.0,0.0,0.0
1.114230222,24,33,0.71881594,-0.66998748,0.02911397,0.18322879,0.0,0.0,0.0,0.0,0.0,0.0,0.0,0.0,0.0,-0.312500,3.250000,1.437500,0.0,0.0,0.0,0.0,0.0,0.0,0.0,0.0,0.0,-0.290527,-0.965820,0.097168,0.0,0.0,0.0,0.0,0.0,0.0,0.0,0.0,0.0
1.129567303,24,33,0.71863979,-0.67017707,0.02984668,0.18310849,0.0,0.0,0.0,0.0,0.0,0.0,0.0,0.0,0.0,-0.500000,3.625000,2.437500,0.0,0.0,0.0,0.0,0.0,0.0,0.0,0.0,0.0,-0.291016,-0.958496,0.099121,0.0,0.0,0.0,0.0,0.0,0.0,0.0,0.0,0.0
1.151513109,25,34,0.71843912,-0.67040484,0.03070044,0.18292091,0.0,0.0,0.0,0.0,0.0,0.0,0.0,0.0,0.0,-1.000000,4.437500,2.687500,0.0,0.0,0.0,0.0,0.0,0.0,0.0,0.0,0.0,-0.291016,-0.966797,0.100098,0.0,0.0,0.0,0.0,0.0,0.0,0.0,0.0,0.0
1.174042878,26,35,0.71815736,-0.67073187,0.03155595,0.18268273,0.0,0.0,0.0,0.0,0.0,0.0,0.0,0.0,0.0,-1.750000,5.000000,2.750000,0.0,0.0,0.0,0.0,0.0,0.0,0.0,0.0,0.0,-0.293457,-0.960938,0.102539,0.0,0.0,0.0,0.0,0.0,0.0,0.0,0.0,0.0
1.189182450,26,35,0.71778221,-0.67115078,0.03259317,0.18243631,0.0,0.0,0.0,0.0,0.0,0.0,0.0,0.0,0.0,-2.187500,5.437500,3.250000,0.0,0.0,0.0,0.0,0.0,0.0,0.0,0.0,0.0,-0.294434,-0.961426,0.102051,0.0,0.0,0.0,0.0,0.0,0.0,0.0,0.0,0.0
1.211400727,27,36,0.71723144,-0.67169875,0.03375279,0.18237491,0.0,0.0,0.0,0.0,0.0,0.0,0.0,0.0,0.0,-3.562500,5.812500,4.250000,0.0,0.0,0.0,0.0,0.0,0.0,0.0,0.0,0.0,-0.297363,-0.948730,0.096680,0.0,0.0,0.0,0.0,0.0,0.0,0.0,0.0,0.0
1.233909392,28,37,0.71613924,-0.67280345,0.03491278,0.18237655,0.0,0.0,0.0,0.0,0.0,0.0,0.0,0.0,0.0,-8.000000,6.062500,5.000000,0.0,0.0,0.0,0.0,0.0,0.0,0.0,0.0,0.0,-0.304199,-0.957031,0.101074,0.0,0.0,0.0,0.0,0.0,0.0,0.0,0.0,0.0
1.249034529,28,37,0.71449572,-0.67439460,0.03595062,0.18274391,0.0,0.0,0.0,0.0,0.0,0.0,0.0,0.0,0.0,-11.625000,4.812500,5.625000,0.0,0.0,0.0,0.0,0.0,0.0,0.0,0.0,0.0,-0.323730,-0.975586,0.087891,0.0,0.0,0.0,0.0,0.0,0.0,0.0,0.0,0.0
1.278984327,29,38,0.71335216,-0.67551178,0.03680282,0.18291550,0.0,0.0,0.0,0.0,0.0,0.0,0.0,0.0,0.0,-9.500000,4.562500,4.500000,0.0,0.0,0.0,0.0,0.0,0.0,0.0,0.0,0.0,-0.315918,-0.983887,0.105957,0.0,0.0,0.0,0.0,0.0,0.0,0.0,0.0,0.0
1.293967857,29,38,0.71261049,-0.67629329,0.03735483,0.18280672,0.0,0.0,0.0,0.0,0.0,0.0,0.0,0.0,0.0,-8.000000,4.625000,3.000000,0.0,0.0,0.0,0.0,0.0,0.0,0.0,0.0,0.0,-0.304688,-0.989746,0.124023,0.0,0.0,0.0,0.0,0.0,0.0,0.0,0.0,0.0
1.309607440,30,39,0.71203594,-0.67687969,0.03771972,0.18280024,0.0,0.0,0.0,0.0,0.0,0.0,0.0,0.0,0.0,-8.000000,3.250000,2.812500,0.0,0.0,0.0,0.0,0.0,0.0,0.0,0.0,0.0,-0.292969,-0.976562,0.135254,0.0,0.0,0.0,0.0,0.0,0.0,0.0,0.0,0.0
1.332097923,30,39,0.71146837,-0.67741164,0.03771875,0.18303969,0.0,0.0,0.0,0.0,0.0,0.0,0.0,0.0,0.0,-7.437500,0.812500,2.500000,0.0,0.0,0.0,0.0,0.0,0.0,0.0,0.0,0.0,-0.298828,-0.992188,0.128418,0.0,0.0,0.0,0.0,0.0,0.0,0.0,0.0,0.0
1.354092848,31,40,0.71094185,-0.67786059,0.03747582,0.18347280,0.0,0.0,0.0,0.0,0.0,0.0,0.0,0.0,0.0,-6.687500,-1.375000,2.812500,0.0,0.0,0.0,0.0,0.0,0.0,0.0,0.0,0.0,-0.295410,-0.994629,0.116699,0.0,0.0,0.0,0.0,0.0,0.0,0.0,0.0,0.0
1.369111457,32,41,0.71079546,-0.67783740,0.03710833,0.18419893,0.0,0.0,0.0,0.0,0.0,0.0,0.0,0.0,0.0,-2.937500,-3.562500,2.375000,0.0,0.0,0.0,0.0,0.0,0.0,0.0,0.0,0.0,-0.304688,-0.998535,0.113281,0.0,0.0,0.0,0.0,0.0,0.0,0.0,0.0,0.0
1.391519028,32,41,0.71112236,-0.67736983,0.03662118,0.18475387,0.0,0.0,0.0,0.0,0.0,0.0,0.0,0.0,0.0,1.250000,-4.250000,0.812500,0.0,0.0,0.0,0.0,0.0,0.0,0.0,0.0,0.0,-0.306152,-0.991211,0.101562,0.0,0.0,0.0,0.0,0.0,0.0,0.0,0.0,0.0
1.416407530,33,42,0.71161884,-0.67676727,0.03625539,0.18512222,0.0,0.0,0.0,0.0,0.0,0.0,0.0,0.0,0.0,3.500000,-3.437500,0.625000,0.0,0.0,0.0,0.0,0.0,0.0,0.0,0.0,0.0,-0.297852,-0.973633,0.088867,0.0,0.0,0.0,0.0,0.0,0.0,0.0,0.0,0.0
1.428913070,33,42,0.71187207,-0.67640970,0.03607274,0.18549080,0.0,0.0,0.0,0.0,0.0,0.0,0.0,0.0,0.0,2.875000,-2.687500,0.687500,0.0,0.0,0.0,0.0,0.0,0.0,0.0,0.0,0.0,-0.304199,-0.973145,0.074707,0.0,0.0,0.0,0.0,0.0,0.0,0.0,0.0,0.0
1.451773167,34,43,0.71189748,-0.67631481,0.03582680,0.18578669,0.0,0.0,0.0,0.0,0.0,0.0,0.0,0.0,0.0,1.625000,-2.937500,0.500000,0.0,0.0,0.0,0.0,0.0,0.0,0.0,0.0,0.0,-0.302246,-0.963379,0.061523,0.0,0.0,0.0,0.0,0.0,0.0,0.0,0.0,0.0
1.474172747,35,44,0.71166586,-0.67650981,0.03546122,0.18603409,0.0,0.0,0.0,0.0,0.0,0.0,0.0,0.0,0.0,-0.312500,-2.562500,0.812500,0.0,0.0,0.0,0.0,0.0,0.0,0.0,0.0,0.0,-0.295410,-0.967285,0.057617,0.0,0.0,0.0,0.0,0.0,0.0,0.0,0.0,0.0
1.497334793,35,44,0.71164381,-0.67654688,0.03546317,0.18598325,0.0,0.0,0.0,0.0,0.0,0.0,0.0,0.0,0.0,-0.937500,-0.562500,0.250000,0.0,0.0,0.0,0.0,0.0,0.0,0.0,0.0,0.0,-0.291016,-0.953125,0.056641,0.0,0.0,0.0,0.0,0.0,0.0,0.0,0.0,0.0
1.512064274,36,45,0.71123130,-0.67699112,0.03564396,0.18591011,0.0,0.0,0.0,0.0,0.0,0.0,0.0,0.0,0.0,-2.000000,1.250000,0.437500,0.0,0.0,0.0,0.0,0.0,0.0,0.0,0.0,0.0,-0.309570,-0.970215,0.065918,0.0,0.0,0.0,0.0,0.0,0.0,0.0,0.0,0.0
1.534241030,36,45,0.71095355,-0.67726138,0.03601156,0.18591728,0.0,0.0,0.0,0.0,0.0,0.0,0.0,0.0,0.0,-1.875000,1.625000,1.562500,0.0,0.0,0.0,0.0,0.0,0.0,0.0,0.0,0.0,-0.310547,-0.956055,0.078125,0.0,0.0,0.0,0.0,0.0,0.0,0.0,0.0,0.0
1.557146755,37,46,0.71063970,-0.67755830,0.03631629,0.18597605,0.0,0.0,0.0,0.0,0.0,0.0,0.0,0.0,0.0,-1.625000,1.500000,1.500000,0.0,0.0,0.0,0.0,0.0,0.0,0.0,0.0,0.0,-0.309570,-0.963867,0.077148,0.0,0.0,0.0,0.0,0.0,0.0,0.0,0.0,0.0
1.579336418,38,47,0.71034019,-0.67786889,0.03668280,0.18591650,0.0,0.0,0.0,0.0,0.0,0.0,0.0,0.0,0.0,-2.875000,2.125000,1.937500,0.0,0.0,0.0,0.0,0.0,0.0,0.0,0.0,0.0,-0.305664,-0.970703,0.086426,0.0,0.0,0.0,0.0,0.0,0.0,0.0,0.0,0.0
1.594444217,38,47,0.71002757,-0.67816696,0.03723174,0.18591455,0.0,0.0,0.0,0.0,0.0,0.0,0.0,0.0,0.0,-2.625000,2.812500,2.812500,0.0,0.0,0.0,0.0,0.0,0.0,0.0,0.0,0.0,-0.305176,-0.971680,0.093262,0.0,0.0,0.0,0.0,0.0,0.0,0.0,0.0,0.0
1.616566064,39,48,0.70986855,-0.67825102,0.03778234,0.18610397,0.0,0.0,0.0,0.0,0.0,0.0,0.0,0.0,0.0,-1.187500,2.125000,2.812500,0.0,0.0,0.0,0.0,0.0,0.0,0.0,0.0,0.0,-0.317383,-0.977051,0.090820,0.0,0.0,0.0,0.0,0.0,0.0,0.0,0.0,0.0
1.631555163,39,48,0.70961356,-0.67848480,0.03808695,0.18616217,0.0,0.0,0.0,0.0,0.0,0.0,0.0,0.0,0.0,-2.187500,1.375000,1.812500,0.0,0.0,0.0,0.0,0.0,0.0,0.0,0.0,0.0,-0.314941,-0.975098,0.087402,0.0,0.0,0.0,0.0,0.0,0.0,0.0,0.0,0.0
1.654276868,40,49,0.70948115,-0.67859699,0.03826950,0.18622049,0.0,0.0,0.0,0.0,0.0,0.0,0.0,0.0,0.0,-2.062500,1.125000,1.250000,0.0,0.0,0.0,0.0,0.0,0.0,0.0,0.0,0.0,-0.316406,-0.990723,0.095703,0.0,0.0,0.0,0.0,0.0,0.0,0.0,0.0,0.0
1.677208179,41,50,0.70978077,-0.67834754,0.03833024,0.18597489,0.0,0.0,0.0,0.0,0.0,0.0,0.0,0.0,0.0,1.125000,1.375000,0.187500,0.0,0.0,0.0,0.0,0.0,0.0,0.0,0.0,0.0,-0.299316,-0.977539,0.094727,0.0,0.0,0.0,0.0,0.0,0.0,0.0,0.0,0.0
1.692969776,41,50,0.71002720,-0.67810558,0.03863554,0.18585342,0.0,0.0,0.0,0.0,0.0,0.0,0.0,0.0,0.0,1.625000,1.375000,1.000000,0.0,0.0,0.0,0.0,0.0,0.0,0.0,0.0,0.0,-0.303223,-0.971191,0.091797,0.0,0.0,0.0,0.0,0.0,0.0,0.0,0.0,0.0
1.714944368,42,51,0.71020630,-0.67785761,0.03881843,0.18603548,0.0,0.0,0.0,0.0,0.0,0.0,0.0,0.0,0.0,0.812500,0.250000,1.312500,0.0,0.0,0.0,0.0,0.0,0.0,0.0,0.0,0.0,-0.312500,-0.959961,0.091309,0.0,0.0,0.0,0.0,0.0,0.0,0.0,0.0,0.0
1.736689967,43,52,0.71009859,-0.67793236,0.03888025,0.18616131,0.0,0.0,0.0,0.0,0.0,0.0,0.0,0.0,0.0,-1.062500,-0.125000,0.687500,0.0,0.0,0.0,0.0,0.0,0.0,0.0,0.0,0.0,-0.311035,-0.958496,0.083984,0.0,0.0,0.0,0.0,0.0,0.0,0.0,0.0,0.0
1.751488939,43,52,0.70972619,-0.67829267,0.03881887,0.18628176,0.0,0.0,0.0,0.0,0.0,0.0,0.0,0.0,0.0,-3.500000,-0.312500,0.562500,0.0,0.0,0.0,0.0,0.0,0.0,0.0,0.0,0.0,-0.317383,-0.968262,0.086914,0.0,0.0,0.0,0.0,0.0,0.0,0.0,0.0,0.0
1.774404728,44,53,0.70947466,-0.67852975,0.03869640,0.18640189,0.0,0.0,0.0,0.0,0.0,0.0,0.0,0.0,0.0,-2.312500,-0.375000,0.375000,0.0,0.0,0.0,0.0,0.0,0.0,0.0,0.0,0.0,-0.313477,-0.975586,0.083496,0.0,0.0,0.0,0.0,0.0,0.0,0.0,0.0,0.0
1.796398997,44,53,0.70947466,-0.67852975,0.03869640,0.18640189,0.0,0.0,0.0,0.0,0.0,0.0,0.0,0.0,0.0,0.000000,-0.125000,-0.250000,0.0,0.0,0.0,0.0,0.0,0.0,0.0,0.0,0.0,-0.312500,-0.990723,0.080566,0.0,0.0,0.0,0.0,0.0,0.0,0.0,0.0,0.0
1.811405531,45,54,0.70990394,-0.67804341,0.03875754,0.18652450,0.0,0.0,0.0,0.0,0.0,0.0,0.0,0.0,0.0,2.687500,-0.625000,0.687500,0.0,0.0,0.0,0.0,0.0,0.0,0.0,0.0,0.0,-0.310547,-0.962402,0.087402,0.0,0.0,0.0,0.0,0.0,0.0,0.0,0.0,0.0
1.834767848,45,54,0.71019406,-0.67772386,0.03875672,0.18658158,0.0,0.0,0.0,0.0,0.0,0.0,0.0,0.0,0.0,2.250000,-0.750000,0.062500,0.0,0.0,0.0,0.0,0.0,0.0,0.0,0.0,0.0,-0.311523,-0.961914,0.083984,0.0,0.0,0.0,0.0,0.0,0.0,0.0,0.0,0.0
1.856950222,46,55,0.71019406,-0.67772386,0.03875672,0.18658158,0.0,0.0,0.0,0.0,0.0,0.0,0.0,0.0,0.0,-0.812500,-0.687500,0.250000,0.0,0.0,0.0,0.0,0.0,0.0,0.0,0.0,0.0,-0.305176,-0.943359,0.076660,0.0,0.0,0.0,0.0,0.0,0.0,0.0,0.0,0.0
1.872335204,47,56,0.70986092,-0.67799957,0.03881957,0.18683442,0.0,0.0,0.0,0.0,0.0,0.0,0.0,0.0,0.0,-2.875000,-0.312500,1.250000,0.0,0.0,0.0,0.0,0.0,0.0,0.0,0.0,0.0,-0.317383,-0.968262,0.083496,0.0,0.0,0.0,0.0,0.0,0.0,0.0,0.0,0.0
1.894377742,47,56,0.70983154,-0.67803255,0.03881796,0.18682668,0.0,0.0,0.0,0.0,0.0,0.0,0.0,0.0,0.0,-0.437500,-0.062500,0.750000,0.0,0.0,0.0,0.0,0.0,0.0,0.0,0.0,0.0,-0.308105,-0.972168,0.069824,0.0,0.0,0.0,0.0,0.0,0.0,0.0,0.0,0.0
1.916567967,48,57,0.70984131,-0.67804189,0.03875746,0.18676822,0.0,0.0,0.0,0.0,0.0,0.0,0.0,0.0,0.0,0.437500,0.312500,0.812500,0.0,0.0,0.0,0.0,0.0,0.0,0.0,0.0,0.0,-0.310059,-0.966797,0.075195,0.0,0.0,0.0,0.0,0.0,0.0,0.0,0.0,0.0
1.931410826,48,57,0.70964918,-0.67821636,0.03894007,0.18682688,0.0,0.0,0.0,0.0,0.0,0.0,0.0,0.0,0.0,-0.562500,0.375000,1.000000,0.0,0.0,0.0,0.0,0.0,0.0,0.0,0.0,0.0,-0.316406,-0.978516,0.069336,0.0,0.0,0.0,0.0,0.0,0.0,0.0,0.0,0.0
1.954596473,49,58,0.70957630,-0.67832711,0.03893942,0.18670169,0.0,0.0,0.0,0.0,0.0,0.0,0.0,0.0,0.0,-1.125000,0.937500,-0.187500,0.0,0.0,0.0,0.0,0.0,0.0,0.0,0.0,0.0,-0.316406,-0.981934,0.084473,0.0,0.0,0.0,0.0,0.0,0.0,0.0,0.0,0.0
1.979142727,50,59,0.70966145,-0.67835017,0.03900178,0.18628079,0.0,0.0,0.0,0.0,0.0,0.0,0.0,0.0,0.0,-0.187500,2.062500,-0.937500,0.0,0.0,0.0,0.0,0.0,0.0,0.0,0.0,0.0,-0.310059,-0.984863,0.087891,0.0,0.0,0.0,0.0,0.0,0.0,0.0,0.0,0.0
1.991354480,50,59,0.71000567,-0.67808501,0.03912264,0.18590882,0.0,0.0,0.0,0.0,0.0,0.0,0.0,0.0,0.0,1.562500,1.875000,-0.375000,0.0,0.0,0.0,0.0,0.0,0.0,0.0,0.0,0.0,-0.299805,-0.970215,0.094238,0.0,0.0,0.0,0.0,0.0,0.0,0.0,0.0,0.0
2.014089770,51,60,0.71040557,-0.67768993,0.03924657,0.18579556,0.0,0.0,0.0,0.0,0.0,0.0,0.0,0.0,0.0,2.312500,0.562500,-0.062500,0.0,0.0,0.0,0.0,0.0,0.0,0.0,0.0,0.0,-0.310059,-0.966309,0.091797,0.0,0.0,0.0,0.0,0.0,0.0,0.0,0.0,0.0
2.037623090,51,60,0.71043750,-0.67766217,0.03918392,0.18578795,0.0,0.0,0.0,0.0,0.0,0.0,0.0,0.0,0.0,0.125000,-0.500000,-0.312500,0.0,0.0,0.0,0.0,0.0,0.0,0.0,0.0,0.0,-0.309570,-0.958984,0.096680,0.0,0.0,0.0,0.0,0.0,0.0,0.0,0.0,0.0
2.051420836,52,61,0.71028517,-0.67775256,0.03918562,0.18604015,0.0,0.0,0.0,0.0,0.0,0.0,0.0,0.0,0.0,-1.875000,-0.687500,0.375000,0.0,0.0,0.0,0.0,0.0,0.0,0.0,0.0,0.0,-0.316406,-0.959961,0.092285,0.0,0.0,0.0,0.0,0.0,0.0,0.0,0.0,0.0
2.077037026,53,62,0.71015147,-0.67786353,0.03912394,0.18615917,0.0,0.0,0.0,0.0,0.0,0.0,0.0,0.0,0.0,-1.312500,-0.625000,0.187500,0.0,0.0,0.0,0.0,0.0,0.0,0.0,0.0,0.0,-0.318359,-0.971680,0.080566,0.0,0.0,0.0,0.0,0.0,0.0,0.0,0.0,0.0
2.096716547,53,62,0.71015147,-0.67786353,0.03912394,0.18615917,0.0,0.0,0.0,0.0,0.0,0.0,0.0,0.0,0.0,-0.125000,-0.250000,0.500000,0.0,0.0,0.0,0.0,0.0,0.0,0.0,0.0,0.0,-0.313965,-0.968750,0.082031,0.0,0.0,0.0,0.0,0.0,0.0,0.0,0.0,0.0
2.111840670,54,63,0.71015316,-0.67786515,0.03906300,0.18615962,0.0,0.0,0.0,0.0,0.0,0.0,0.0,0.0,0.0,0.562500,-0.187500,0.937500,0.0,0.0,0.0,0.0,0.0,0.0,0.0,0.0,0.0,-0.311035,-0.974609,0.075684,0.0,0.0,0.0,0.0,0.0,0.0,0.0,0.0,0.0
2.135888224,54,63,0.71031421,-0.67766099,0.03912282,0.18627590,0.0,0.0,0.0,0.0,0.0,0.0,0.0,0.0,0.0,1.750000,-0.625000,1.062500,0.0,0.0,0.0,0.0,0.0,0.0,0.0,0.0,0.0,-0.305664,-0.961426,0.077637,0.0,0.0,0.0,0.0,0.0,0.0,0.0,0.0,0.0
2.164968920,55,64,0.71026611,-0.67767334,0.03918457,0.18640137,0.0,0.0,0.0,0.0,0.0,0.0,0.0,0.0,0.0,-0.812500,-0.125000,1.187500,0.0,0.0,0.0,0.0,0.0,0.0,0.0,0.0,0.0,-0.309082,-0.966309,0.089844,0.0,0.0,0.0,0.0,0.0,0.0,0.0,0.0,0.0
2.172450337,55,64,0.70997945,-0.67793516,0.03924663,0.18652830,0.0,0.0,0.0,0.0,0.0,0.0,0.0,0.0,0.0,-2.750000,0.312500,1.062500,0.0,0.0,0.0,0.0,0.0,0.0,0.0,0.0,0.0,-0.309082,-0.968750,0.086426,0.0,0.0,0.0,0.0,0.0,0.0,0.0,0.0,0.0
2.193979779,56,65,0.70970973,-0.67821591,0.03930625,0.18652158,0.0,0.0,0.0,0.0,0.0,0.0,0.0,0.0,0.0,-2.437500,0.562500,1.000000,0.0,0.0,0.0,0.0,0.0,0.0,0.0,0.0,0.0,-0.318359,-0.994629,0.082031,0.0,0.0,0.0,0.0,0.0,0.0,0.0,0.0,0.0
2.225640801,57,66,0.70984524,-0.67804563,0.03949010,0.18658615,0.0,0.0,0.0,0.0,0.0,0.0,0.0,0.0,0.0,1.562500,0.250000,0.937500,0.0,0.0,0.0,0.0,0.0,0.0,0.0,0.0,0.0,-0.314941,-0.975586,0.077637,0.0,0.0,0.0,0.0,0.0,0.0,0.0,0.0,0.0
2.248667655,58,67,0.71033335,-0.67755718,0.03967320,0.18646403,0.0,0.0,0.0,0.0,0.0,0.0,0.0,0.0,0.0,4.250000,0.500000,0.687500,0.0,0.0,0.0,0.0,0.0,0.0,0.0,0.0,0.0,-0.303711,-0.966797,0.077637,0.0,0.0,0.0,0.0,0.0,0.0,0.0,0.0,0.0
2.253938244,58,67,0.71083552,-0.67708213,0.03991812,0.18622353,0.0,0.0,0.0,0.0,0.0,0.0,0.0,0.0,0.0,4.250000,1.437500,0.562500,0.0,0.0,0.0,0.0,0.0,0.0,0.0,0.0,0.0,-0.300293,-0.964355,0.080078,0.0,0.0,0.0,0.0,0.0,0.0,0.0,0.0,0.0
2.276926648,59,68,0.71087950,-0.67706588,0.04028338,0.18603595,0.0,0.0,0.0,0.0,0.0,0.0,0.0,0.0,0.0,1.062500,2.125000,0.812500,0.0,0.0,0.0,0.0,0.0,0.0,0.0,0.0,0.0,-0.307617,-0.957520,0.075684,0.0,0.0,0.0,0.0,0.0,0.0,0.0,0.0,0.0
2.291384491,59,68,0.71076582,-0.67713491,0.04083318,0.18609918,0.0,0.0,0.0,0.0,0.0,0.0,0.0,0.0,0.0,-0.312500,2.062500,2.125000,0.0,0.0,0.0,0.0,0.0,0.0,0.0,0.0,0.0,-0.319824,-0.962891,0.081055,0.0,0.0,0.0,0.0,0.0,0.0,0.0,0.0,0.0
2.314179087,60,69,0.71043747,-0.67741800,0.04132012,0.18621518,0.0,0.0,0.0,0.0,0.0,0.0,0.0,0.0,0.0,-2.187500,1.875000,2.125000,0.0,0.0,0.0,0.0,0.0,0.0,0.0,0.0,0.0,-0.320801,-0.959473,0.083008,0.0,0.0,0.0,0.0,0.0,0.0,0.0,0.0,0.0
2.339105032,60,69,0.70991134,-0.67792841,0.04168768,0.18628230,0.0,0.0,0.0,0.0,0.0,0.0,0.0,0.0,0.0,-3.625000,1.875000,1.937500,0.0,0.0,0.0,0.0,0.0,0.0,0.0,0.0,0.0,-0.325684,-0.976562,0.080078,0.0,0.0,0.0,0.0,0.0,0.0,0.0,0.0,0.0
2.353568232,61,70,0.70977415,-0.67809707,0.04211404,0.18609523,0.0,0.0,0.0,0.0,0.0,0.0,0.0,0.0,0.0,-1.937500,2.812500,1.500000,0.0,0.0,0.0,0.0,0.0,0.0,0.0,0.0,0.0,-0.315430,-0.976562,0.095215,0.0,0.0,0.0,0.0,0.0,0.0,0.0,0.0,0.0
2.381925287,62,71,0.70988211,-0.67790049,0.04266250,0.18627463,0.0,0.0,0.0,0.0,0.0,0.0,0.0,0.0,0.0,0.062500,1.875000,2.750000,0.0,0.0,0.0,0.0,0.0,0.0,0.0,0.0,0.0,-0.325684,-0.989746,0.104980,0.0,0.0,0.0,0.0,0.0,0.0,0.0,0.0,0.0
2.396558668,62,71,0.70992174,-0.67775522,0.04266489,0.18665125,0.0,0.0,0.0,0.0,0.0,0.0,0.0,0.0,0.0,-1.250000,-0.812500,1.500000,0.0,0.0,0.0,0.0,0.0,0.0,0.0,0.0,0.0,-0.332031,-0.989258,0.110840,0.0,0.0,0.0,0.0,0.0,0.0,0.0,0.0,0.0
2.411367617,63,72,0.71013490,-0.67754254,0.04199165,0.18676517,0.0,0.0,0.0,0.0,0.0,0.0,0.0,0.0,0.0,-1.812500,-2.625000,-3.125000,0.0,0.0,0.0,0.0,0.0,0.0,0.0,0.0,0.0,-0.329590,-0.968262,0.120117,0.0,0.0,0.0,0.0,0.0,0.0,0.0,0.0,0.0
2.434898144,63,72,0.71003023,-0.67774226,0.04077196,0.18670872,0.0,0.0,0.0,0.0,0.0,0.0,0.0,0.0,0.0,-4.437500,-3.937500,-4.562500,0.0,0.0,0.0,0.0,0.0,0.0,0.0,0.0,0.0,-0.315430,-0.970703,0.110352,0.0,0.0,0.0,0.0,0.0,0.0,0.0,0.0,0.0
2.457024763,64,73,0.70985035,-0.67798948,0.03949038,0.18677060,0.0,0.0,0.0,0.0,0.0,0.0,0.0,0.0,0.0,-4.812500,-4.375000,-3.937500,0.0,0.0,0.0,0.0,0.0,0.0,0.0,0.0,0.0,-0.299316,-0.955566,0.104004,0.0,0.0,0.0,0.0,0.0,0.0,0.0,0.0,0.0
2.479624492,65,74,0.70992085,-0.67793748,0.03851432,0.18689516,0.0,0.0,0.0,0.0,0.0,0.0,0.0,0.0,0.0,-1.687500,-4.375000,-2.437500,0.0,0.0,0.0,0.0,0.0,0.0,0.0,0.0,0.0,-0.301758,-0.973145,0.091309,0.0,0.0,0.0,0.0,0.0,0.0,0.0,0.0,0.0
2.494251467,65,74,0.71003403,-0.67780692,0.03784244,0.18707593,0.0,0.0,0.0,0.0,0.0,0.0,0.0,0.0,0.0,0.312500,-3.750000,-1.312500,0.0,0.0,0.0,0.0,0.0,0.0,0.0,0.0,0.0,-0.302246,-0.962891,0.076172,0.0,0.0,0.0,0.0,0.0,0.0,0.0,0.0,0.0
2.524672595,66,75,0.71026300,-0.67748727,0.03747542,0.18743814,0.0,0.0,0.0,0.0,0.0,0.0,0.0,0.0,0.0,2.312500,-3.375000,-0.562500,0.0,0.0,0.0,0.0,0.0,0.0,0.0,0.0,0.0,-0.316406,-0.964355,0.073242,0.0,0.0,0.0,0.0,0.0,0.0,0.0,0.0,0.0
2.531996796,66,75,0.71044836,-0.67724528,0.03710933,0.18768288,0.0,0.0,0.0,0.0,0.0,0.0,0.0,0.0,0.0,2.687500,-3.250000,0.187500,0.0,0.0,0.0,0.0,0.0,0.0,0.0,0.0,0.0,-0.307129,-0.970215,0.057617,0.0,0.0,0.0,0.0,0.0,0.0,0.0,0.0,0.0
2.554254476,67,76,0.71027420,-0.67743691,0.03662151,0.18774628,0.0,0.0,0.0,0.0,0.0,0.0,0.0,0.0,0.0,-1.000000,-2.375000,-1.187500,0.0,0.0,0.0,0.0,0.0,0.0,0.0,0.0,0.0,-0.305176,-0.963867,0.066895,0.0,0.0,0.0,0.0,0.0,0.0,0.0,0.0,0.0
2.576809678,68,77,0.70972227,-0.67810581,0.03619413,0.18750145,0.0,0.0,0.0,0.0,0.0,0.0,0.0,0.0,0.0,-4.375000,-0.062500,-1.375000,0.0,0.0,0.0,0.0,0.0,0.0,0.0,0.0,0.0,-0.300781,-0.976562,0.066406,0.0,0.0,0.0,0.0,0.0,0.0,0.0,0.0,0.0
2.593017396,68,77,0.70964412,-0.67827256,0.03588808,0.18725279,0.0,0.0,0.0,0.0,0.0,0.0,0.0,0.0,0.0,-0.812500,-0.187500,-1.312500,0.0,0.0,0.0,0.0,0.0,0.0,0.0,0.0,0.0,-0.307617,-0.990234,0.073242,0.0,0.0,0.0,0.0,0.0,0.0,0.0,0.0,0.0
2.615354508,69,78,0.70966300,-0.67835164,0.03558386,0.18695259,0.0,0.0,0.0,0.0,0.0,0.0,0.0,0.0,0.0,-1.062500,0.000000,-2.812500,0.0,0.0,0.0,0.0,0.0,0.0,0.0,0.0,0.0,-0.315430,-0.975586,0.089355,0.0,0.0,0.0,0.0,0.0,0.0,0.0,0.0,0.0
2.637487536,69,78,0.70959209,-0.67858635,0.03509508,0.18646171,0.0,0.0,0.0,0.0,0.0,0.0,0.0,0.0,0.0,-2.500000,0.312500,-4.062500,0.0,0.0,0.0,0.0,0.0,0.0,0.0,0.0,0.0,-0.309570,-0.963379,0.089844,0.0,0.0,0.0,0.0,0.0,0.0,0.0,0.0,0.0
2.653980625,70,79,0.70929073,-0.67901724,0.03479010,0.18609650,0.0,0.0,0.0,0.0,0.0,0.0,0.0,0.0,0.0,-4.875000,1.437500,-2.500000,0.0,0.0,0.0,0.0,0.0,0.0,0.0,0.0,0.0,-0.319824,-0.991699,0.104492,0.0,0.0,0.0,0.0,0.0,0.0,0.0,0.0,0.0
2.675832490,71,80,0.70908044,-0.67929381,0.03460864,0.18592227,0.0,0.0,0.0,0.0,0.0,0.0,0.0,0.0,0.0,-3.437500,0.250000,-1.875000,0.0,0.0,0.0,0.0,0.0,0.0,0.0,0.0,0.0,-0.319336,-0.983887,0.092773,0.0,0.0,0.0,0.0,0.0,0.0,0.0,0.0,0.0
2.697169000,71,80,0.70923920,-0.67914842,0.03424124,0.18591589,0.0,0.0,0.0,0.0,0.0,0.0,0.0,0.0,0.0,0.187500,-1.187500,-1.312500,0.0,0.0,0.0,0.0,0.0,0.0,0.0,0.0,0.0,-0.308105,-0.981934,0.088867,0.0,0.0,0.0,0.0,0.0,0.0,0.0,0.0,0.0
2.713829378,72,81,0.70966080,-0.67877679,0.03387475,0.18573130,0.0,0.0,0.0,0.0,0.0,0.0,0.0,0.0,0.0,2.187500,-1.125000,-1.625000,0.0,0.0,0.0,0.0,0.0,0.0,0.0,0.0,0.0,-0.290039,-0.964355,0.086426,0.0,0.0,0.0,0.0,0.0,0.0,0.0,0.0,0.0
2.734432831,72,81,0.70989500,-0.67858418,0.03350807,0.18560663,0.0,0.0,0.0,0.0,0.0,0.0,0.0,0.0,0.0,1.125000,-1.062500,-1.500000,0.0,0.0,0.0,0.0,0.0,0.0,0.0,0.0,0.0,-0.294434,-0.963867,0.077637,0.0,0.0,0.0,0.0,0.0,0.0,0.0,0.0,0.0
2.758497129,73,82,0.70988373,-0.67863444,0.03308030,0.18554265,0.0,0.0,0.0,0.0,0.0,0.0,0.0,0.0,0.0,-0.125000,-1.625000,-1.500000,0.0,0.0,0.0,0.0,0.0,0.0,0.0,0.0,0.0,-0.298828,-0.969727,0.069824,0.0,0.0,0.0,0.0,0.0,0.0,0.0,0.0,0.0
2.773686265,73,82,0.70966297,-0.67890094,0.03265414,0.18548772,0.0,0.0,0.0,0.0,0.0,0.0,0.0,0.0,0.0,-1.875000,-1.375000,-1.937500,0.0,0.0,0.0,0.0,0.0,0.0,0.0,0.0,0.0,-0.300293,-0.966309,0.069336,0.0,0.0,0.0,0.0,0.0,0.0,0.0,0.0,0.0
2.801603848,74,83,0.70948032,-0.67914552,0.03222691,0.18536577,0.0,0.0,0.0,0.0,0.0,0.0,0.0,0.0,0.0,-1.937500,-1.000000,-1.875000,0.0,0.0,0.0,0.0,0.0,0.0,0.0,0.0,0.0,-0.306152,-0.976074,0.073242,0.0,0.0,0.0,0.0,0.0,0.0,0.0,0.0,0.0
2.816565945,75,84,0.70939941,-0.67930960,0.03198187,0.18511644,0.0,0.0,0.0,0.0,0.0,0.0,0.0,0.0,0.0,-1.187500,-0.125000,-1.750000,0.0,0.0,0.0,0.0,0.0,0.0,0.0,0.0,0.0,-0.298828,-0.968262,0.074219,0.0,0.0,0.0,0.0,0.0,0.0,0.0,0.0,0.0
2.839951493,75,84,0.70928532,-0.67950035,0.03186016,0.18487439,0.0,0.0,0.0,0.0,0.0,0.0,0.0,0.0,0.0,-1.187500,0.812500,-1.250000,0.0,0.0,0.0,0.0,0.0,0.0,0.0,0.0,0.0,-0.300781,-0.975586,0.074219,0.0,0.0,0.0,0.0,0.0,0.0,0.0,0.0,0.0
2.855886905,76,85,0.70910339,-0.67974561,0.03173814,0.18469159,0.0,0.0,0.0,0.0,0.0,0.0,0.0,0.0,0.0,-1.937500,0.625000,-0.875000,0.0,0.0,0.0,0.0,0.0,0.0,0.0,0.0,0.0,-0.299316,-0.968262,0.077637,0.0,0.0,0.0,0.0,0.0,0.0,0.0,0.0,0.0
2.876875290,77,86,0.70900257,-0.67988806,0.03161702,0.18457505,0.0,0.0,0.0,0.0,0.0,0.0,0.0,0.0,0.0,-1.187500,0.250000,-0.562500,0.0,0.0,0.0,0.0,0.0,0.0,0.0,0.0,0.0,-0.301758,-0.984863,0.080566,0.0,0.0,0.0,0.0,0.0,0.0,0.0,0.0,0.0
2.915553794,78,87,0.70903292,-0.67985863,0.03161565,0.18456706,0.0,0.0,0.0,0.0,0.0,0.0,0.0,0.0,0.0,-0.125000,0.125000,0.062500,0.0,0.0,0.0,0.0,0.0,0.0,0.0,0.0,0.0,-0.301270,-0.967285,0.084473,0.0,0.0,0.0,0.0,0.0,0.0,0.0,0.0,0.0
2.918825072,78,87,0.70902745,-0.67991442,0.03161541,0.18438254,0.0,0.0,0.0,0.0,0.0,0.0,0.0,0.0,0.0,-1.250000,0.750000,-0.750000,0.0,0.0,0.0,0.0,0.0,0.0,0.0,0.0,0.0,-0.299316,-0.968750,0.088379,0.0,0.0,0.0,0.0,0.0,0.0,0.0,0.0,0.0
2.939165600,78,87,0.70892347,-0.68017590,0.03149415,0.18383792,0.0,0.0,0.0,0.0,0.0,0.0,0.0,0.0,0.0,-2.062500,2.312500,-1.687500,0.0,0.0,0.0,0.0,0.0,0.0,0.0,0.0,0.0,-0.282227,-0.971191,0.082520,0.0,0.0,0.0,0.0,0.0,0.0,0.0,0.0,0.0
2.961198164,79,88,0.70885112,-0.68034815,0.03155468,0.18346878,0.0,0.0,0.0,0.0,0.0,0.0,0.0,0.0,0.0,-1.625000,2.062500,-0.500000,0.0,0.0,0.0,0.0,0.0,0.0,0.0,0.0,0.0,-0.294922,-0.982422,0.083984,0.0,0.0,0.0,0.0,0.0,0.0,0.0,0.0,0.0
2.974384032,79,88,0.70882075,-0.68037758,0.03155604,0.18347672,0.0,0.0,0.0,0.0,0.0,0.0,0.0,0.0,0.0,-0.687500,-0.125000,0.375000,0.0,0.0,0.0,0.0,0.0,0.0,0.0,0.0,0.0,-0.310547,-0.990234,0.069824,0.0,0.0,0.0,0.0,0.0,0.0,0.0,0.0,0.0
2.997557724,80,89,0.70898562,-0.68017698,0.03149420,0.18359407,0.0,0.0,0.0,0.0,0.0,0.0,0.0,0.0,0.0,1.312500,-1.000000,0.187500,0.0,0.0,0.0,0.0,0.0,0.0,0.0,0.0,0.0,-0.295898,-0.963867,0.073730,0.0,0.0,0.0,0.0,0.0,0.0,0.0,0.0,0.0
3.021652064,81,90,0.70912380,-0.68007035,0.03137284,0.18347617,0.0,0.0,0.0,0.0,0.0,0.0,0.0,0.0,0.0,1.187500,-0.250000,-0.500000,0.0,0.0,0.0,0.0,0.0,0.0,0.0,0.0,0.0,-0.294922,-0.973145,0.069336,0.0,0.0,0.0,0.0,0.0,0.0,0.0,0.0,0.0
3.035830313,81,90,0.70912380,-0.68007035,0.03137284,0.18347617,0.0,0.0,0.0,0.0,0.0,0.0,0.0,0.0,0.0,0.312500,0.875000,-0.812500,0.0,0.0,0.0,0.0,0.0,0.0,0.0,0.0,0.0,-0.289551,-0.963867,0.072754,0.0,0.0,0.0,0.0,0.0,0.0,0.0,0.0,0.0
3.056495001,82,91,0.70898137,-0.68023393,0.03143297,0.18340987,0.0,0.0,0.0,0.0,0.0,0.0,0.0,0.0,0.0,-1.187500,0.812500,0.125000,0.0,0.0,0.0,0.0,0.0,0.0,0.0,0.0,0.0,-0.303223,-0.979492,0.073730,0.0,0.0,0.0,0.0,0.0,0.0,0.0,0.0,0.0
3.080831192,83,92,0.70898001,-0.68023263,0.03149395,0.18340952,0.0,0.0,0.0,0.0,0.0,0.0,0.0,0.0,0.0,-0.062500,-0.562500,0.937500,0.0,0.0,0.0,0.0,0.0,0.0,0.0,0.0,0.0,-0.312012,-0.971191,0.074219,0.0,0.0,0.0,0.0,0.0,0.0,0.0,0.0,0.0
3.094183264,83,92,0.70898001,-0.68023263,0.03149395,0.18340952,0.0,0.0,0.0,0.0,0.0,0.0,0.0,0.0,0.0,0.750000,-0.062500,0.500000,0.0,0.0,0.0,0.0,0.0,0.0,0.0,0.0,0.0,-0.297363,-0.956543,0.083008,0.0,0.0,0.0,0.0,0.0,0.0,0.0,0.0,0.0
3.116755958,84,93,0.70900945,-0.68019983,0.03149525,0.18341713,0.0,0.0,0.0,0.0,0.0,0.0,0.0,0.0,0.0,-0.750000,0.250000,-0.312500,0.0,0.0,0.0,0.0,0.0,0.0,0.0,0.0,0.0,-0.292480,-0.975586,0.084473,0.0,0.0,0.0,0.0,0.0,0.0,0.0,0.0,0.0
3.139015778,84,93,0.70867577,-0.68053870,0.03137192,0.18347079,0.0,0.0,0.0,0.0,0.0,0.0,0.0,0.0,0.0,-3.312500,0.062500,0.250000,0.0,0.0,0.0,0.0,0.0,0.0,0.0,0.0,0.0,-0.303223,-0.985352,0.083496,0.0,0.0,0.0,0.0,0.0,0.0,0.0,0.0,0.0
3.154287997,85,94,0.70870521,-0.68050593,0.03137322,0.18347841,0.0,0.0,0.0,0.0,0.0,0.0,0.0,0.0,0.0,0.562500,-0.875000,0.750000,0.0,0.0,0.0,0.0,0.0,0.0,0.0,0.0,0.0,-0.300781,-0.989258,0.081055,0.0,0.0,0.0,0.0,0.0,0.0,0.0,0.0,0.0
3.176786571,85,94,0.70900964,-0.68020002,0.03112904,0.18347822,0.0,0.0,0.0,0.0,0.0,0.0,0.0,0.0,0.0,1.562500,-1.000000,-0.187500,0.0,0.0,0.0,0.0,0.0,0.0,0.0,0.0,0.0,-0.282715,-0.967285,0.083496,0.0,0.0,0.0,0.0,0.0,0.0,0.0,0.0,0.0
3.199346327,86,95,0.70899351,-0.68024558,0.03088419,0.18341301,0.0,0.0,0.0,0.0,0.0,0.0,0.0,0.0,0.0,-1.250000,-0.625000,-0.625000,0.0,0.0,0.0,0.0,0.0,0.0,0.0,0.0,0.0,-0.294922,-0.979492,0.086426,0.0,0.0,0.0,0.0,0.0,0.0,0.0,0.0,0.0
3.214797643,87,96,0.70905329,-0.68018334,0.03088413,0.18341268,0.0,0.0,0.0,0.0,0.0,0.0,0.0,0.0,0.0,-0.812500,-0.312500,-0.312500,0.0,0.0,0.0,0.0,0.0,0.0,0.0,0.0,0.0,-0.299316,-0.972656,0.091309,0.0,0.0,0.0,0.0,0.0,0.0,0.0,0.0,0.0
3.244144721,87,96,0.70905329,-0.68018334,0.03088413,0.18341268,0.0,0.0,0.0,0.0,0.0,0.0,0.0,0.0,0.0,0.625000,-0.937500,-0.625000,0.0,0.0,0.0,0.0,0.0,0.0,0.0,0.0,0.0,-0.300293,-0.975586,0.077637,0.0,0.0,0.0,0.0,0.0,0.0,0.0,0.0,0.0
3.259156800,88,97,0.70904536,-0.68017573,0.03088379,0.18347167,0.0,0.0,0.0,0.0,0.0,0.0,0.0,0.0,0.0,-0.375000,-0.812500,-0.125000,0.0,0.0,0.0,0.0,0.0,0.0,0.0,0.0,0.0,-0.300781,-0.973145,0.073242,0.0,0.0,0.0,0.0,0.0,0.0,0.0,0.0,0.0
3.276935712,88,97,0.70904536,-0.68017573,0.03088379,0.18347167,0.0,0.0,0.0,0.0,0.0,0.0,0.0,0.0,0.0,-0.250000,-0.937500,0.375000,0.0,0.0,0.0,0.0,0.0,0.0,0.0,0.0,0.0,-0.298828,-0.961914,0.067871,0.0,0.0,0.0,0.0,0.0,0.0,0.0,0.0,0.0
3.297923464,89,98,0.70905329,-0.68018334,0.03088413,0.18341268,0.0,0.0,0.0,0.0,0.0,0.0,0.0,0.0,0.0,-0.375000,-0.625000,0.437500,0.0,0.0,0.0,0.0,0.0,0.0,0.0,0.0,0.0,-0.297852,-0.978027,0.072266,0.0,0.0,0.0,0.0,0.0,0.0,0.0,0.0,0.0
3.319008105,90,99,0.70905329,-0.68018334,0.03088413,0.18341268,0.0,0.0,0.0,0.0,0.0,0.0,0.0,0.0,0.0,-0.187500,-0.187500,0.625000,0.0,0.0,0.0,0.0,0.0,0.0,0.0,0.0,0.0,-0.292969,-0.967285,0.071289,0.0,0.0,0.0,0.0,0.0,0.0,0.0,0.0,0.0
3.334951572,90,99,0.70905329,-0.68018334,0.03088413,0.18341268,0.0,0.0,0.0,0.0,0.0,0.0,0.0,0.0,0.0,-0.437500,-0.375000,0.062500,0.0,0.0,0.0,0.0,0.0,0.0,0.0,0.0,0.0,-0.297363,-0.983398,0.077148,0.0,0.0,0.0,0.0,0.0,0.0,0.0,0.0,0.0
3.359289830,91,100,0.70893371,-0.68030780,0.03088424,0.18341333,0.0,0.0,0.0,0.0,0.0,0.0,0.0,0.0,0.0,-1.187500,0.187500,0.187500,0.0,0.0,0.0,0.0,0.0,0.0,0.0,0.0,0.0,-0.295898,-0.970703,0.079590,0.0,0.0,0.0,0.0,0.0,0.0,0.0,0.0,0.0
3.378897096,92,101,0.70887819,-0.68031310,0.03094552,0.18359786,0.0,0.0,0.0,0.0,0.0,0.0,0.0,0.0,0.0,-1.000000,-0.062500,1.250000,0.0,0.0,0.0,0.0,0.0,0.0,0.0,0.0,0.0,-0.302734,-0.983887,0.087891,0.0,0.0,0.0,0.0,0.0,0.0,0.0,0.0,0.0
3.394413214,92,101,0.70879981,-0.68035749,0.03106683,0.18371544,0.0,0.0,0.0,0.0,0.0,0.0,0.0,0.0,0.0,-1.187500,0.062500,1.250000,0.0,0.0,0.0,0.0,0.0,0.0,0.0,0.0,0.0,-0.296875,-0.976562,0.086426,0.0,0.0,0.0,0.0,0.0,0.0,0.0,0.0,0.0
3.417037379,93,102,0.70885962,-0.68029527,0.03106678,0.18371512,0.0,0.0,0.0,0.0,0.0,0.0,0.0,0.0,0.0,0.812500,-0.312500,0.562500,0.0,0.0,0.0,0.0,0.0,0.0,0.0,0.0,0.0,-0.292480,-0.973145,0.084961,0.0,0.0,0.0,0.0,0.0,0.0,0.0,0.0,0.0
3.439169880,93,102,0.70885962,-0.68029527,0.03106678,0.18371512,0.0,0.0,0.0,0.0,0.0,0.0,0.0,0.0,0.0,0.375000,-0.312500,0.812500,0.0,0.0,0.0,0.0,0.0,0.0,0.0,0.0,0.0,-0.302734,-0.974609,0.083984,0.0,0.0,0.0,0.0,0.0,0.0,0.0,0.0,0.0
3.454576259,94,103,0.70885962,-0.68029527,0.03106678,0.18371512,0.0,0.0,0.0,0.0,0.0,0.0,0.0,0.0,0.0,-0.062500,-0.562500,0.437500,0.0,0.0,0.0,0.0,0.0,0.0,0.0,0.0,0.0,-0.297363,-0.963867,0.078613,0.0,0.0,0.0,0.0,0.0,0.0,0.0,0.0,0.0
3.476562206,94,103,0.70889039,-0.68026377,0.03100709,0.18372310,0.0,0.0,0.0,0.0,0.0,0.0,0.0,0.0,0.0,-0.187500,-0.500000,0.875000,0.0,0.0,0.0,0.0,0.0,0.0,0.0,0.0,0.0,-0.291992,-0.977539,0.078613,0.0,0.0,0.0,0.0,0.0,0.0,0.0,0.0,0.0
3.499779577,95,104,0.70892075,-0.68023434,0.03100575,0.18371515,0.0,0.0,0.0,0.0,0.0,0.0,0.0,0.0,0.0,-0.750000,-0.437500,0.875000,0.0,0.0,0.0,0.0,0.0,0.0,0.0,0.0,0.0,-0.295898,-0.973633,0.080078,0.0,0.0,0.0,0.0,0.0,0.0,0.0,0.0,0.0
3.521545183,96,105,0.70892075,-0.68023434,0.03100575,0.18371515,0.0,0.0,0.0,0.0,0.0,0.0,0.0,0.0,0.0,-0.250000,-0.750000,0.500000,0.0,0.0,0.0,0.0,0.0,0.0,0.0,0.0,0.0,-0.301270,-0.981934,0.076172,0.0,0.0,0.0,0.0,0.0,0.0,0.0,0.0,0.0
3.536926475,96,105,0.70892075,-0.68023434,0.03100575,0.18371515,0.0,0.0,0.0,0.0,0.0,0.0,0.0,0.0,0.0,0.125000,-0.250000,0.687500,0.0,0.0,0.0,0.0,0.0,0.0,0.0,0.0,0.0,-0.293457,-0.965820,0.073242,0.0,0.0,0.0,0.0,0.0,0.0,0.0,0.0,0.0
3.559407291,97,106,0.70892075,-0.68023434,0.03100575,0.18371515,0.0,0.0,0.0,0.0,0.0,0.0,0.0,0.0,0.0,-0.437500,0.250000,0.187500,0.0,0.0,0.0,0.0,0.0,0.0,0.0,0.0,0.0,-0.294434,-0.975098,0.077637,0.0,0.0,0.0,0.0,0.0,0.0,0.0,0.0,0.0
3.575707396,97,106,0.70866933,-0.68053251,0.03094439,0.18359119,0.0,0.0,0.0,0.0,0.0,0.0,0.0,0.0,0.0,-2.750000,0.687500,0.187500,0.0,0.0,0.0,0.0,0.0,0.0,0.0,0.0,0.0,-0.294434,-0.979492,0.080566,0.0,0.0,0.0,0.0,0.0,0.0,0.0,0.0,0.0
3.596575732,98,107,0.70853380,-0.68064165,0.03094381,0.18370977,0.0,0.0,0.0,0.0,0.0,0.0,0.0,0.0,0.0,-1.375000,-0.187500,0.750000,0.0,0.0,0.0,0.0,0.0,0.0,0.0,0.0,0.0,-0.298828,-0.978516,0.080078,0.0,0.0,0.0,0.0,0.0,0.0,0.0,0.0,0.0
3.618996102,99,108,0.70876417,-0.68038187,0.03094587,0.18378306,0.0,0.0,0.0,0.0,0.0,0.0,0.0,0.0,0.0,1.437500,-0.375000,0.500000,0.0,0.0,0.0,0.0,0.0,0.0,0.0,0.0,0.0,-0.296387,-0.975586,0.080078,0.0,0.0,0.0,0.0,0.0,0.0,0.0,0.0,0.0
3.637033598,99,108,0.70879455,-0.68035243,0.03094453,0.18377511,0.0,0.0,0.0,0.0,0.0,0.0,0.0,0.0,0.0,0.937500,0.562500,-0.187500,0.0,0.0,0.0,0.0,0.0,0.0,0.0,0.0,0.0,-0.286621,-0.958984,0.083984,0.0,0.0,0.0,0.0,0.0,0.0,0.0,0.0,0.0
3.656968075,100,109,0.70855260,-0.68059868,0.03106670,0.18377568,0.0,0.0,0.0,0.0,0.0,0.0,0.0,0.0,0.0,-2.062500,0.875000,0.562500,0.0,0.0,0.0,0.0,0.0,0.0,0.0,0.0,0.0,-0.298340,-0.974609,0.080566,0.0,0.0,0.0,0.0,0.0,0.0,0.0,0.0,0.0
3.679238041,100,109,0.70839324,-0.68074357,0.03112877,0.18384288,0.0,0.0,0.0,0.0,0.0,0.0,0.0,0.0,0.0,-1.812500,0.187500,0.625000,0.0,0.0,0.0,0.0,0.0,0.0,0.0,0.0,0.0,-0.300781,-0.966797,0.080078,0.0,0.0,0.0,0.0,0.0,0.0,0.0,0.0,0.0
3.696437493,101,110,0.70842365,-0.68071414,0.03112743,0.18383493,0.0,0.0,0.0,0.0,0.0,0.0,0.0,0.0,0.0,-0.437500,-0.687500,0.312500,0.0,0.0,0.0,0.0,0.0,0.0,0.0,0.0,0.0,-0.307617,-0.979980,0.084961,0.0,0.0,0.0,0.0,0.0,0.0,0.0,0.0,0.0
3.716649511,102,111,0.70844513,-0.68067374,0.03112837,0.18390154,0.0,0.0,0.0,0.0,0.0,0.0,0.0,0.0,0.0,-0.125000,-0.875000,0.750000,0.0,0.0,0.0,0.0,0.0,0.0,0.0,0.0,0.0,-0.307129,-0.971191,0.080078,0.0,0.0,0.0,0.0,0.0,0.0,0.0,0.0,0.0
3.741825322,102,111,0.70844513,-0.68067374,0.03112837,0.18390154,0.0,0.0,0.0,0.0,0.0,0.0,0.0,0.0,0.0,0.125000,-0.375000,0.375000,0.0,0.0,0.0,0.0,0.0,0.0,0.0,0.0,0.0,-0.301758,-0.970703,0.080078,0.0,0.0,0.0,0.0,0.0,0.0,0.0,0.0,0.0
3.756569759,103,112,0.70837310,-0.68078525,0.03106685,0.18377662,0.0,0.0,0.0,0.0,0.0,0.0,0.0,0.0,0.0,-1.125000,0.562500,-0.062500,0.0,0.0,0.0,0.0,0.0,0.0,0.0,0.0,0.0,-0.291016,-0.979492,0.081055,0.0,0.0,0.0,0.0,0.0,0.0,0.0,0.0,0.0
3.776723995,103,112,0.70824546,-0.68090196,0.03106661,0.18383621,0.0,0.0,0.0,0.0,0.0,0.0,0.0,0.0,0.0,-1.562500,0.000000,1.000000,0.0,0.0,0.0,0.0,0.0,0.0,0.0,0.0,0.0,-0.296387,-0.976074,0.079590,0.0,0.0,0.0,0.0,0.0,0.0,0.0,0.0,0.0
3.799411522,104,113,0.70827490,-0.68086922,0.03106790,0.18384385,0.0,0.0,0.0,0.0,0.0,0.0,0.0,0.0,0.0,-0.062500,-0.375000,-0.187500,0.0,0.0,0.0,0.0,0.0,0.0,0.0,0.0,0.0,-0.293945,-0.980469,0.074707,0.0,0.0,0.0,0.0,0.0,0.0,0.0,0.0,0.0
3.815732251,105,114,0.70827490,-0.68086922,0.03106790,0.18384385,0.0,0.0,0.0,0.0,0.0,0.0,0.0,0.0,0.0,0.375000,-0.750000,-0.062500,0.0,0.0,0.0,0.0,0.0,0.0,0.0,0.0,0.0,-0.294922,-0.960938,0.081055,0.0,0.0,0.0,0.0,0.0,0.0,0.0,0.0,0.0
3.836560792,105,114,0.70814062,-0.68097957,0.03100633,0.18396275,0.0,0.0,0.0,0.0,0.0,0.0,0.0,0.0,0.0,-1.625000,-0.500000,-0.125000,0.0,0.0,0.0,0.0,0.0,0.0,0.0,0.0,0.0,-0.307617,-0.975586,0.081543,0.0,0.0,0.0,0.0,0.0,0.0,0.0,0.0,0.0
3.859882934,106,115,0.70820048,-0.68091740,0.03100628,0.18396245,0.0,0.0,0.0,0.0,0.0,0.0,0.0,0.0,0.0,-0.812500,-0.375000,0.187500,0.0,0.0,0.0,0.0,0.0,0.0,0.0,0.0,0.0,-0.302734,-0.973633,0.080566,0.0,0.0,0.0,0.0,0.0,0.0,0.0,0.0,0.0
3.876486150,106,115,0.70820048,-0.68091740,0.03100628,0.18396245,0.0,0.0,0.0,0.0,0.0,0.0,0.0,0.0,0.0,-0.500000,-0.625000,0.937500,0.0,0.0,0.0,0.0,0.0,0.0,0.0,0.0,0.0,-0.310059,-0.983398,0.078613,0.0,0.0,0.0,0.0,0.0,0.0,0.0,0.0,0.0
3.897337639,107,116,0.70827009,-0.68074253,0.03106769,0.18433089,0.0,0.0,0.0,0.0,0.0,0.0,0.0,0.0,0.0,0.937500,-1.187500,1.250000,0.0,0.0,0.0,0.0,0.0,0.0,0.0,0.0,0.0,-0.304199,-0.961914,0.075195,0.0,0.0,0.0,0.0,0.0,0.0,0.0,0.0,0.0
3.919462464,108,117,0.70830051,-0.68071310,0.03106635,0.18432292,0.0,0.0,0.0,0.0,0.0,0.0,0.0,0.0,0.0,-0.187500,-0.625000,0.312500,0.0,0.0,0.0,0.0,0.0,0.0,0.0,0.0,0.0,-0.291504,-0.973145,0.080566,0.0,0.0,0.0,0.0,0.0,0.0,0.0,0.0,0.0
3.943976268,108,117,0.70809321,-0.68093163,0.03094589,0.18433251,0.0,0.0,0.0,0.0,0.0,0.0,0.0,0.0,0.0,-1.625000,-0.187500,0.250000,0.0,0.0,0.0,0.0,0.0,0.0,0.0,0.0,0.0,-0.296387,-0.981445,0.069336,0.0,0.0,0.0,0.0,0.0,0.0,0.0,0.0,0.0
3.957031358,109,118,0.70813161,-0.68090986,0.03094490,0.18426558,0.0,0.0,0.0,0.0,0.0,0.0,0.0,0.0,0.0,-0.062500,-0.437500,0.812500,0.0,0.0,0.0,0.0,0.0,0.0,0.0,0.0,0.0,-0.289062,-0.976074,0.082520,0.0,0.0,0.0,0.0,0.0,0.0,0.0,0.0,0.0
3.979538634,109,118,0.70813161,-0.68090986,0.03094490,0.18426558,0.0,0.0,0.0,0.0,0.0,0.0,0.0,0.0,0.0,-0.937500,-0.500000,-0.562500,0.0,0.0,0.0,0.0,0.0,0.0,0.0,0.0,0.0,-0.297363,-0.981445,0.084961,0.0,0.0,0.0,0.0,0.0,0.0,0.0,0.0,0.0
3.995914779,110,119,0.70792944,-0.68107463,0.03088303,0.18444373,0.0,0.0,0.0,0.0,0.0,0.0,0.0,0.0,0.0,-2.500000,-0.562500,0.500000,0.0,0.0,0.0,0.0,0.0,0.0,0.0,0.0,0.0,-0.302734,-0.971191,0.082520,0.0,0.0,0.0,0.0,0.0,0.0,0.0,0.0,0.0
4.016448844,111,120,0.70795887,-0.68104191,0.03088432,0.18445139,0.0,0.0,0.0,0.0,0.0,0.0,0.0,0.0,0.0,-0.562500,-0.937500,0.937500,0.0,0.0,0.0,0.0,0.0,0.0,0.0,0.0,0.0,-0.311523,-0.984863,0.082520,0.0,0.0,0.0,0.0,0.0,0.0,0.0,0.0,0.0
4.040442296,111,120,0.70815992,-0.68081501,0.03088510,0.18451710,0.0,0.0,0.0,0.0,0.0,0.0,0.0,0.0,0.0,1.312500,-0.437500,0.125000,0.0,0.0,0.0,0.0,0.0,0.0,0.0,0.0,0.0,-0.299316,-0.968262,0.080078,0.0,0.0,0.0,0.0,0.0,0.0,0.0,0.0,0.0
4.057313344,112,121,0.70819035,-0.68078558,0.03088376,0.18450913,0.0,0.0,0.0,0.0,0.0,0.0,0.0,0.0,0.0,0.000000,0.062500,-0.187500,0.0,0.0,0.0,0.0,0.0,0.0,0.0,0.0,0.0,-0.292969,-0.970703,0.083496,0.0,0.0,0.0,0.0,0.0,0.0,0.0,0.0,0.0
4.077893767,112,121,0.70807463,-0.68091376,0.03070093,0.18451078,0.0,0.0,0.0,0.0,0.0,0.0,0.0,0.0,0.0,-1.750000,-0.187500,0.187500,0.0,0.0,0.0,0.0,0.0,0.0,0.0,0.0,0.0,-0.292480,-0.977051,0.078613,0.0,0.0,0.0,0.0,0.0,0.0,0.0,0.0,0.0
4.099433600,113,122,0.70807463,-0.68091376,0.03070093,0.18451078,0.0,0.0,0.0,0.0,0.0,0.0,0.0,0.0,0.0,-0.500000,-0.812500,0.750000,0.0,0.0,0.0,0.0,0.0,0.0,0.0,0.0,0.0,-0.298828,-0.976562,0.072266,0.0,0.0,0.0,0.0,0.0,0.0,0.0,0.0,0.0
4.115981369,113,122,0.70807463,-0.68091376,0.03070093,0.18451078,0.0,0.0,0.0,0.0,0.0,0.0,0.0,0.0,0.0,-0.250000,-0.750000,0.375000,0.0,0.0,0.0,0.0,0.0,0.0,0.0,0.0,0.0,-0.298340,-0.974121,0.076660,0.0,0.0,0.0,0.0,0.0,0.0,0.0,0.0,0.0
4.136975731,114,123,0.70807463,-0.68091376,0.03070093,0.18451078,0.0,0.0,0.0,0.0,0.0,0.0,0.0,0.0,0.0,-0.937500,-0.500000,0.375000,0.0,0.0,0.0,0.0,0.0,0.0,0.0,0.0,0.0,-0.301758,-0.971191,0.078613,0.0,0.0,0.0,0.0,0.0,0.0,0.0,0.0,0.0
4.158972449,115,124,0.70807463,-0.68091376,0.03070093,0.18451078,0.0,0.0,0.0,0.0,0.0,0.0,0.0,0.0,0.0,-0.187500,-0.187500,0.000000,0.0,0.0,0.0,0.0,0.0,0.0,0.0,0.0,0.0,-0.300293,-0.980469,0.085449,0.0,0.0,0.0,0.0,0.0,0.0,0.0,0.0,0.0
4.189781685,116,125,0.70813448,-0.68085159,0.03070088,0.18451048,0.0,0.0,0.0,0.0,0.0,0.0,0.0,0.0,0.0,-1.000000,0.125000,0.375000,0.0,0.0,0.0,0.0,0.0,0.0,0.0,0.0,0.0,-0.289551,-0.970215,0.077637,0.0,0.0,0.0,0.0,0.0,0.0,0.0,0.0,0.0
4.196455375,116,125,0.70796039,-0.68098233,0.03070127,0.18469593,0.0,0.0,0.0,0.0,0.0,0.0,0.0,0.0,0.0,-1.437500,-0.562500,0.750000,0.0,0.0,0.0,0.0,0.0,0.0,0.0,0.0,0.0,-0.306641,-0.980469,0.077637,0.0,0.0,0.0,0.0,0.0,0.0,0.0,0.0,0.0
4.219692793,117,126,0.70796039,-0.68098233,0.03070127,0.18469593,0.0,0.0,0.0,0.0,0.0,0.0,0.0,0.0,0.0,0.062500,-0.750000,0.750000,0.0,0.0,0.0,0.0,0.0,0.0,0.0,0.0,0.0,-0.299316,-0.971191,0.078613,0.0,0.0,0.0,0.0,0.0,0.0,0.0,0.0,0.0
4.243417199,117,126,0.70796039,-0.68098233,0.03070127,0.18469593,0.0,0.0,0.0,0.0,0.0,0.0,0.0,0.0,0.0,-0.125000,-0.625000,0.625000,0.0,0.0,0.0,0.0,0.0,0.0,0.0,0.0,0.0,-0.300781,-0.966797,0.076660,0.0,0.0,0.0,0.0,0.0,0.0,0.0,0.0,0.0
4.257302062,118,127,0.70802026,-0.68092017,0.03070122,0.18469563,0.0,0.0,0.0,0.0,0.0,0.0,0.0,0.0,0.0,-0.750000,-0.062500,0.187500,0.0,0.0,0.0,0.0,0.0,0.0,0.0,0.0,0.0,-0.294434,-0.965332,0.079590,0.0,0.0,0.0,0.0,0.0,0.0,0.0,0.0,0.0
4.279396550,118,127,0.70776479,-0.68115342,0.03070073,0.18481474,0.0,0.0,0.0,0.0,0.0,0.0,0.0,0.0,0.0,-1.937500,0.000000,0.687500,0.0,0.0,0.0,0.0,0.0,0.0,0.0,0.0,0.0,-0.302734,-0.977051,0.077148,0.0,0.0,0.0,0.0,0.0,0.0,0.0,0.0,0.0
4.301977848,119,128,0.70766258,-0.68117254,0.03076263,0.18512512,0.0,0.0,0.0,0.0,0.0,0.0,0.0,0.0,0.0,-0.937500,-0.750000,1.375000,0.0,0.0,0.0,0.0,0.0,0.0,0.0,0.0,0.0,-0.308105,-0.982910,0.077637,0.0,0.0,0.0,0.0,0.0,0.0,0.0,0.0,0.0
4.317073715,119,128,0.70769305,-0.68114312,0.03076130,0.18511712,0.0,0.0,0.0,0.0,0.0,0.0,0.0,0.0,0.0,0.562500,-0.687500,0.500000,0.0,0.0,0.0,0.0,0.0,0.0,0.0,0.0,0.0,-0.297363,-0.966309,0.079590,0.0,0.0,0.0,0.0,0.0,0.0,0.0,0.0,0.0
4.339368501,120,129,0.70769305,-0.68114312,0.03076130,0.18511712,0.0,0.0,0.0,0.0,0.0,0.0,0.0,0.0,0.0,-0.750000,-0.312500,0.125000,0.0,0.0,0.0,0.0,0.0,0.0,0.0,0.0,0.0,-0.301758,-0.973633,0.073242,0.0,0.0,0.0,0.0,0.0,0.0,0.0,0.0,0.0
4.362657097,121,130,0.70760401,-0.68123595,0.03070170,0.18512576,0.0,0.0,0.0,0.0,0.0,0.0,0.0,0.0,0.0,-1.187500,0.000000,0.500000,0.0,0.0,0.0,0.0,0.0,0.0,0.0,0.0,0.0,-0.292969,-0.969238,0.077637,0.0,0.0,0.0,0.0,0.0,0.0,0.0,0.0,0.0
4.376746978,121,130,0.70763449,-0.68120653,0.03070037,0.18511777,0.0,0.0,0.0,0.0,0.0,0.0,0.0,0.0,0.0,-0.812500,-0.312500,0.625000,0.0,0.0,0.0,0.0,0.0,0.0,0.0,0.0,0.0,-0.306152,-0.986328,0.088379,0.0,0.0,0.0,0.0,0.0,0.0,0.0,0.0,0.0
4.398871785,122,131,0.70770120,-0.68102889,0.03088373,0.18548546,0.0,0.0,0.0,0.0,0.0,0.0,0.0,0.0,0.0,0.312500,-0.812500,2.125000,0.0,0.0,0.0,0.0,0.0,0.0,0.0,0.0,0.0,-0.303223,-0.975098,0.080078,0.0,0.0,0.0,0.0,0.0,0.0,0.0,0.0,0.0
4.421532382,123,132,0.70778915,-0.68081064,0.03106801,0.18591978,0.0,0.0,0.0,0.0,0.0,0.0,0.0,0.0,0.0,0.750000,-1.000000,2.312500,0.0,0.0,0.0,0.0,0.0,0.0,0.0,0.0,0.0,-0.305176,-0.969238,0.081543,0.0,0.0,0.0,0.0,0.0,0.0,0.0,0.0,0.0
4.436973482,123,132,0.70788208,-0.68066055,0.03118880,0.18609523,0.0,0.0,0.0,0.0,0.0,0.0,0.0,0.0,0.0,0.250000,-0.187500,1.125000,0.0,0.0,0.0,0.0,0.0,0.0,0.0,0.0,0.0,-0.300293,-0.967285,0.087402,0.0,0.0,0.0,0.0,0.0,0.0,0.0,0.0,0.0
4.474508783,124,133,0.70778238,-0.68074309,0.03125083,0.18616215,0.0,0.0,0.0,0.0,0.0,0.0,0.0,0.0,0.0,-1.687500,0.437500,0.625000,0.0,0.0,0.0,0.0,0.0,0.0,0.0,0.0,0.0,-0.302734,-0.977051,0.084961,0.0,0.0,0.0,0.0,0.0,0.0,0.0,0.0,0.0
4.481468276,124,133,0.70777553,-0.68067547,0.03143363,0.18640449,0.0,0.0,0.0,0.0,0.0,0.0,0.0,0.0,0.0,0.125000,-0.437500,1.625000,0.0,0.0,0.0,0.0,0.0,0.0,0.0,0.0,0.0,-0.308594,-0.977539,0.079102,0.0,0.0,0.0,0.0,0.0,0.0,0.0,0.0,0.0
4.498392070,125,134,0.70789242,-0.68048737,0.03143340,0.18664727,0.0,0.0,0.0,0.0,0.0,0.0,0.0,0.0,0.0,0.687500,-0.750000,1.125000,0.0,0.0,0.0,0.0,0.0,0.0,0.0,0.0,0.0,-0.300293,-0.969238,0.081543,0.0,0.0,0.0,0.0,0.0,0.0,0.0,0.0,0.0
4.520315785,126,135,0.70794666,-0.68035878,0.03155517,0.18688962,0.0,0.0,0.0,0.0,0.0,0.0,0.0,0.0,0.0,-0.125000,-0.437500,1.000000,0.0,0.0,0.0,0.0,0.0,0.0,0.0,0.0,0.0,-0.309082,-0.968262,0.083984,0.0,0.0,0.0,0.0,0.0,0.0,0.0,0.0,0.0
4.542079451,126,135,0.70782969,-0.68048574,0.03143333,0.18689096,0.0,0.0,0.0,0.0,0.0,0.0,0.0,0.0,0.0,-1.875000,-0.125000,0.000000,0.0,0.0,0.0,0.0,0.0,0.0,0.0,0.0,0.0,-0.304688,-0.974609,0.083496,0.0,0.0,0.0,0.0,0.0,0.0,0.0,0.0,0.0
4.558419687,127,136,0.70770841,-0.68054754,0.03137233,0.18713532,0.0,0.0,0.0,0.0,0.0,0.0,0.0,0.0,0.0,-1.250000,-1.062500,0.687500,0.0,0.0,0.0,0.0,0.0,0.0,0.0,0.0,0.0,-0.308105,-0.979492,0.080078,0.0,0.0,0.0,0.0,0.0,0.0,0.0,0.0,0.0
4.578941618,127,136,0.70770815,-0.68048626,0.03125024,0.18737939,0.0,0.0,0.0,0.0,0.0,0.0,0.0,0.0,0.0,-0.187500,-1.375000,0.812500,0.0,0.0,0.0,0.0,0.0,0.0,0.0,0.0,0.0,-0.302246,-0.974609,0.078125,0.0,0.0,0.0,0.0,0.0,0.0,0.0,0.0,0.0
4.602010644,128,137,0.70784376,-0.68031616,0.03112877,0.18750505,0.0,0.0,0.0,0.0,0.0,0.0,0.0,0.0,0.0,0.250000,-1.062500,0.312500,0.0,0.0,0.0,0.0,0.0,0.0,0.0,0.0,0.0,-0.297852,-0.963867,0.082520,0.0,0.0,0.0,0.0,0.0,0.0,0.0,0.0,0.0
4.619546159,129,138,0.70784376,-0.68031616,0.03112877,0.18750505,0.0,0.0,0.0,0.0,0.0,0.0,0.0,0.0,0.0,-0.187500,-0.500000,0.187500,0.0,0.0,0.0,0.0,0.0,0.0,0.0,0.0,0.0,-0.299805,-0.971191,0.077148,0.0,0.0,0.0,0.0,0.0,0.0,0.0,0.0,0.0
4.639586455,129,138,0.70765877,-0.68049747,0.03100661,0.18756559,0.0,0.0,0.0,0.0,0.0,0.0,0.0,0.0,0.0,-1.750000,-0.312500,0.312500,0.0,0.0,0.0,0.0,0.0,0.0,0.0,0.0,0.0,-0.297363,-0.966797,0.077148,0.0,0.0,0.0,0.0,0.0,0.0,0.0,0.0,0.0
4.661388458,130,139,0.70765877,-0.68049747,0.03100661,0.18756559,0.0,0.0,0.0,0.0,0.0,0.0,0.0,0.0,0.0,-0.562500,-0.750000,0.312500,0.0,0.0,0.0,0.0,0.0,0.0,0.0,0.0,0.0,-0.304688,-0.978516,0.075195,0.0,0.0,0.0,0.0,0.0,0.0,0.0,0.0,0.0
4.680323779,130,139,0.70769734,-0.68047586,0.03100563,0.18749860,0.0,0.0,0.0,0.0,0.0,0.0,0.0,0.0,0.0,0.187500,-1.000000,-0.562500,0.0,0.0,0.0,0.0,0.0,0.0,0.0,0.0,0.0,-0.294922,-0.965332,0.074219,0.0,0.0,0.0,0.0,0.0,0.0,0.0,0.0,0.0
4.698995752,131,140,0.70792508,-0.68033804,0.03069974,0.18718909,0.0,0.0,0.0,0.0,0.0,0.0,0.0,0.0,0.0,0.937500,0.062500,-1.875000,0.0,0.0,0.0,0.0,0.0,0.0,0.0,0.0,0.0,-0.290527,-0.964355,0.078125,0.0,0.0,0.0,0.0,0.0,0.0,0.0,0.0,0.0
4.722549310,132,141,0.70821043,-0.68025555,0.03033531,0.18646754,0.0,0.0,0.0,0.0,0.0,0.0,0.0,0.0,0.0,0.375000,1.562500,-4.125000,0.0,0.0,0.0,0.0,0.0,0.0,0.0,0.0,0.0,-0.284668,-0.952637,0.084473,0.0,0.0,0.0,0.0,0.0,0.0,0.0,0.0,0.0
4.746205347,132,141,0.70799605,-0.68089689,0.02996776,0.18499448,0.0,0.0,0.0,0.0,0.0,0.0,0.0,0.0,0.0,-4.187500,4.937500,-5.250000,0.0,0.0,0.0,0.0,0.0,0.0,0.0,0.0,0.0,-0.273926,-0.974609,0.079590,0.0,0.0,0.0,0.0,0.0,0.0,0.0,0.0,0.0
4.759835658,133,142,0.70693196,-0.68215089,0.03027441,0.18439315,0.0,0.0,0.0,0.0,0.0,0.0,0.0,0.0,0.0,-8.875000,5.375000,-0.812500,0.0,0.0,0.0,0.0,0.0,0.0,0.0,0.0,0.0,-0.318359,-1.007324,0.072266,0.0,0.0,0.0,0.0,0.0,0.0,0.0,0.0,0.0
4.782373592,133,142,0.70629939,-0.68261773,0.03082278,0.18499771,0.0,0.0,0.0,0.0,0.0,0.0,0.0,0.0,0.0,-3.750000,0.000000,2.625000,0.0,0.0,0.0,0.0,0.0,0.0,0.0,0.0,0.0,-0.354980,-1.015137,0.068359,0.0,0.0,0.0,0.0,0.0,0.0,0.0,0.0,0.0
4.798989153,134,143,0.70674511,-0.68196417,0.03100669,0.18567395,0.0,0.0,0.0,0.0,0.0,0.0,0.0,0.0,0.0,4.250000,-2.625000,1.937500,0.0,0.0,0.0,0.0,0.0,0.0,0.0,0.0,0.0,-0.320801,-0.971191,0.073242,0.0,0.0,0.0,0.0,0.0,0.0,0.0,0.0,0.0
4.819431073,134,143,0.70721795,-0.68152202,0.03106705,0.18548678,0.0,0.0,0.0,0.0,0.0,0.0,0.0,0.0,0.0,2.687500,0.750000,-0.687500,0.0,0.0,0.0,0.0,0.0,0.0,0.0,0.0,0.0,-0.283691,-0.942383,0.084961,0.0,0.0,0.0,0.0,0.0,0.0,0.0,0.0,0.0
4.841408109,135,144,0.70689945,-0.68187538,0.03131060,0.18536122,0.0,0.0,0.0,0.0,0.0,0.0,0.0,0.0,0.0,-3.750000,2.187500,0.937500,0.0,0.0,0.0,0.0,0.0,0.0,0.0,0.0,0.0,-0.305176,-0.971680,0.087402,0.0,0.0,0.0,0.0,0.0,0.0,0.0,0.0,0.0
4.858307336,136,145,0.70684623,-0.68182189,0.03149406,0.18572948,0.0,0.0,0.0,0.0,0.0,0.0,0.0,0.0,0.0,-1.000000,-0.562500,1.812500,0.0,0.0,0.0,0.0,0.0,0.0,0.0,0.0,0.0,-0.314941,-0.987793,0.084961,0.0,0.0,0.0,0.0,0.0,0.0,0.0,0.0,0.0
4.880467651,136,145,0.70700214,-0.68148829,0.03155660,0.18634875,0.0,0.0,0.0,0.0,0.0,0.0,0.0,0.0,0.0,1.562500,-2.187500,2.687500,0.0,0.0,0.0,0.0,0.0,0.0,0.0,0.0,0.0,-0.308594,-0.992188,0.079102,0.0,0.0,0.0,0.0,0.0,0.0,0.0,0.0,0.0
4.903681173,137,146,0.70727726,-0.68103207,0.03167733,0.18695118,0.0,0.0,0.0,0.0,0.0,0.0,0.0,0.0,0.0,2.375000,-2.562500,2.812500,0.0,0.0,0.0,0.0,0.0,0.0,0.0,0.0,0.0,-0.303223,-0.968750,0.080566,0.0,0.0,0.0,0.0,0.0,0.0,0.0,0.0,0.0
4.918356217,137,146,0.70752850,-0.68067269,0.03161661,0.18731927,0.0,0.0,0.0,0.0,0.0,0.0,0.0,0.0,0.0,1.750000,-1.687500,1.187500,0.0,0.0,0.0,0.0,0.0,0.0,0.0,0.0,0.0,-0.305664,-0.974609,0.081543,0.0,0.0,0.0,0.0,0.0,0.0,0.0,0.0,0.0
4.941193566,138,147,0.70768890,-0.68040671,0.03161560,0.18767946,0.0,0.0,0.0,0.0,0.0,0.0,0.0,0.0,0.0,1.000000,-1.625000,1.250000,0.0,0.0,0.0,0.0,0.0,0.0,0.0,0.0,0.0,-0.307617,-0.980469,0.080566,0.0,0.0,0.0,0.0,0.0,0.0,0.0,0.0,0.0
4.962091910,139,148,0.70819660,-0.67981502,0.03149439,0.18792875,0.0,0.0,0.0,0.0,0.0,0.0,0.0,0.0,0.0,3.437500,-2.000000,0.937500,0.0,0.0,0.0,0.0,0.0,0.0,0.0,0.0,0.0,-0.299316,-0.977051,0.084961,0.0,0.0,0.0,0.0,0.0,0.0,0.0,0.0,0.0
4.979839810,139,148,0.70897717,-0.67913128,0.03124968,0.18749809,0.0,0.0,0.0,0.0,0.0,0.0,0.0,0.0,0.0,6.687500,-0.625000,-2.312500,0.0,0.0,0.0,0.0,0.0,0.0,0.0,0.0,0.0,-0.289062,-0.982422,0.064453,0.0,0.0,0.0,0.0,0.0,0.0,0.0,0.0,0.0
4.999044628,140,149,0.70957865,-0.67887866,0.03076102,0.18621404,0.0,0.0,0.0,0.0,0.0,0.0,0.0,0.0,0.0,3.875000,2.687500,-6.875000,0.0,0.0,0.0,0.0,0.0,0.0,0.0,0.0,0.0,-0.280273,-0.943848,0.063477,0.0,0.0,0.0,0.0,0.0,0.0,0.0,0.0,0.0
5.023670448,141,150,0.70922292,-0.67968214,0.03002906,0.18475196,0.0,0.0,0.0,0.0,0.0,0.0,0.0,0.0,0.0,-3.687500,3.125000,-7.562500,0.0,0.0,0.0,0.0,0.0,0.0,0.0,0.0,0.0,-0.279785,-0.957520,0.051270,0.0,0.0,0.0,0.0,0.0,0.0,0.0,0.0,0.0
5.038714767,141,150,0.70917038,-0.68017856,0.02935803,0.18322829,0.0,0.0,0.0,0.0,0.0,0.0,0.0,0.0,0.0,-2.125000,3.625000,-5.437500,0.0,0.0,0.0,0.0,0.0,0.0,0.0,0.0,0.0,-0.250977,-0.983887,0.066406,0.0,0.0,0.0,0.0,0.0,0.0,0.0,0.0,0.0
5.058939827,142,151,0.70855300,-0.68090423,0.02935774,0.18292130,0.0,0.0,0.0,0.0,0.0,0.0,0.0,0.0,0.0,-4.687500,1.937500,-0.937500,0.0,0.0,0.0,0.0,0.0,0.0,0.0,0.0,0.0,-0.305176,-0.991211,0.067383,0.0,0.0,0.0,0.0,0.0,0.0,0.0,0.0,0.0
5.082047088,142,151,0.70868276,-0.68066748,0.02941909,0.18328950,0.0,0.0,0.0,0.0,0.0,0.0,0.0,0.0,0.0,1.812500,-1.875000,-0.875000,0.0,0.0,0.0,0.0,0.0,0.0,0.0,0.0,0.0,-0.334473,-0.976562,0.065918,0.0,0.0,0.0,0.0,0.0,0.0,0.0,0.0,0.0
5.098154181,143,152,0.70887419,-0.68018718,0.02941944,0.18432926,0.0,0.0,0.0,0.0,0.0,0.0,0.0,0.0,0.0,2.312500,-4.812500,1.500000,0.0,0.0,0.0,0.0,0.0,0.0,0.0,0.0,0.0,-0.335449,-0.965820,0.077637,0.0,0.0,0.0,0.0,0.0,0.0,0.0,0.0,0.0
5.119759792,143,152,0.70935794,-0.67938937,0.02929718,0.18542673,0.0,0.0,0.0,0.0,0.0,0.0,0.0,0.0,0.0,2.437500,-5.000000,1.437500,0.0,0.0,0.0,0.0,0.0,0.0,0.0,0.0,0.0,-0.328613,-0.970215,0.108398,0.0,0.0,0.0,0.0,0.0,0.0,0.0,0.0,0.0
5.142146525,144,153,0.70977535,-0.67870856,0.02917470,0.18633968,0.0,0.0,0.0,0.0,0.0,0.0,0.0,0.0,0.0,1.562500,-4.375000,1.250000,0.0,0.0,0.0,0.0,0.0,0.0,0.0,0.0,0.0,-0.325684,-0.968262,0.118164,0.0,0.0,0.0,0.0,0.0,0.0,0.0,0.0,0.0
5.158659836,145,154,0.71004591,-0.67812344,0.02911475,0.18744528,0.0,0.0,0.0,0.0,0.0,0.0,0.0,0.0,0.0,0.687500,-4.500000,2.812500,0.0,0.0,0.0,0.0,0.0,0.0,0.0,0.0,0.0,-0.324707,-0.993164,0.117188,0.0,0.0,0.0,0.0,0.0,0.0,0.0,0.0,0.0
5.179095505,145,154,0.71057094,-0.67730680,0.02905272,0.18841544,0.0,0.0,0.0,0.0,0.0,0.0,0.0,0.0,0.0,2.875000,-4.375000,3.500000,0.0,0.0,0.0,0.0,0.0,0.0,0.0,0.0,0.0,-0.306152,-0.989258,0.118164,0.0,0.0,0.0,0.0,0.0,0.0,0.0,0.0,0.0
5.201589603,146,155,0.71138065,-0.67616258,0.02911442,0.18945736,0.0,0.0,0.0,0.0,0.0,0.0,0.0,0.0,0.0,5.937500,-4.375000,3.937500,0.0,0.0,0.0,0.0,0.0,0.0,0.0,0.0,0.0,-0.309082,-0.992676,0.112793,0.0,0.0,0.0,0.0,0.0,0.0,0.0,0.0,0.0
5.218709275,146,155,0.71216082,-0.67499028,0.02929698,0.19067453,0.0,0.0,0.0,0.0,0.0,0.0,0.0,0.0,0.0,6.812500,-5.187500,5.500000,0.0,0.0,0.0,0.0,0.0,0.0,0.0,0.0,0.0,-0.298340,-0.980469,0.104004,0.0,0.0,0.0,0.0,0.0,0.0,0.0,0.0,0.0
5.239694583,147,156,0.71277573,-0.67383491,0.02935821,0.19244578,0.0,0.0,0.0,0.0,0.0,0.0,0.0,0.0,0.0,5.937500,-7.687500,6.312500,0.0,0.0,0.0,0.0,0.0,0.0,0.0,0.0,0.0,-0.320312,-0.979980,0.104004,0.0,0.0,0.0,0.0,0.0,0.0,0.0,0.0,0.0
5.262446369,148,157,0.71357636,-0.67249888,0.02887021,0.19421777,0.0,0.0,0.0,0.0,0.0,0.0,0.0,0.0,0.0,7.750000,-10.625000,4.500000,0.0,0.0,0.0,0.0,0.0,0.0,0.0,0.0,0.0,-0.316406,-0.981445,0.096680,0.0,0.0,0.0,0.0,0.0,0.0,0.0,0.0,0.0
5.280145809,148,157,0.71473375,-0.67072666,0.02825975,0.19617031,0.0,0.0,0.0,0.0,0.0,0.0,0.0,0.0,0.0,11.812500,-12.500000,5.062500,0.0,0.0,0.0,0.0,0.0,0.0,0.0,0.0,0.0,-0.308105,-0.971191,0.086426,0.0,0.0,0.0,0.0,0.0,0.0,0.0,0.0,0.0
5.299011254,149,158,0.71564288,-0.66919476,0.02795432,0.19812169,0.0,0.0,0.0,0.0,0.0,0.0,0.0,0.0,0.0,9.750000,-10.687500,6.750000,0.0,0.0,0.0,0.0,0.0,0.0,0.0,0.0,0.0,-0.296387,-0.961426,0.091797,0.0,0.0,0.0,0.0,0.0,0.0,0.0,0.0,0.0
5.321796392,149,158,0.71643835,-0.66791488,0.02819854,0.19952607,0.0,0.0,0.0,0.0,0.0,0.0,0.0,0.0,0.0,8.250000,-5.937500,7.187500,0.0,0.0,0.0,0.0,0.0,0.0,0.0,0.0,0.0,-0.290527,-0.945312,0.107910,0.0,0.0,0.0,0.0,0.0,0.0,0.0,0.0,0.0
5.338272408,150,159,0.71697471,-0.66698728,0.02874735,0.20062108,0.0,0.0,0.0,0.0,0.0,0.0,0.0,0.0,0.0,6.500000,-3.062500,7.125000,0.0,0.0,0.0,0.0,0.0,0.0,0.0,0.0,0.0,-0.304199,-0.970703,0.107910,0.0,0.0,0.0,0.0,0.0,0.0,0.0,0.0,0.0
5.366811413,151,160,0.71746674,-0.66613629,0.02935785,0.20159869,0.0,0.0,0.0,0.0,0.0,0.0,0.0,0.0,0.0,6.500000,-2.562500,5.750000,0.0,0.0,0.0,0.0,0.0,0.0,0.0,0.0,0.0,-0.314453,-0.956543,0.104980,0.0,0.0,0.0,0.0,0.0,0.0,0.0,0.0,0.0
5.382050507,151,160,0.71791242,-0.66529888,0.02984689,0.20270253,0.0,0.0,0.0,0.0,0.0,0.0,0.0,0.0,0.0,5.312500,-3.312500,6.500000,0.0,0.0,0.0,0.0,0.0,0.0,0.0,0.0,0.0,-0.306152,-0.948242,0.115234,0.0,0.0,0.0,0.0,0.0,0.0,0.0,0.0,0.0
5.398724497,152,161,0.71787760,-0.66508351,0.03015062,0.20348614,0.0,0.0,0.0,0.0,0.0,0.0,0.0,0.0,0.0,0.812500,-1.625000,5.375000,0.0,0.0,0.0,0.0,0.0,0.0,0.0,0.0,0.0,-0.307617,-0.962402,0.117676,0.0,0.0,0.0,0.0,0.0,0.0,0.0,0.0,0.0
5.421003432,152,161,0.71789323,-0.66491488,0.03057852,0.20391781,0.0,0.0,0.0,0.0,0.0,0.0,0.0,0.0,0.0,0.500000,0.250000,4.937500,0.0,0.0,0.0,0.0,0.0,0.0,0.0,0.0,0.0,-0.298828,-0.957031,0.125000,0.0,0.0,0.0,0.0,0.0,0.0,0.0,0.0,0.0
5.443644711,153,162,0.71806125,-0.66471782,0.03094408,0.20391353,0.0,0.0,0.0,0.0,0.0,0.0,0.0,0.0,0.0,1.375000,1.562500,3.125000,0.0,0.0,0.0,0.0,0.0,0.0,0.0,0.0,0.0,-0.298340,-0.979492,0.126953,0.0,0.0,0.0,0.0,0.0,0.0,0.0,0.0,0.0
5.458361829,154,163,0.71827982,-0.66444545,0.03125079,0.20398463,0.0,0.0,0.0,0.0,0.0,0.0,0.0,0.0,0.0,1.875000,0.812500,2.250000,0.0,0.0,0.0,0.0,0.0,0.0,0.0,0.0,0.0,-0.307617,-0.959961,0.124512,0.0,0.0,0.0,0.0,0.0,0.0,0.0,0.0,0.0
5.481856003,154,163,0.71855818,-0.66405444,0.03161583,0.20422116,0.0,0.0,0.0,0.0,0.0,0.0,0.0,0.0,0.0,2.750000,0.125000,2.250000,0.0,0.0,0.0,0.0,0.0,0.0,0.0,0.0,0.0,-0.320312,-0.962891,0.121094,0.0,0.0,0.0,0.0,0.0,0.0,0.0,0.0,0.0
5.502062925,155,164,0.71879712,-0.66362241,0.03210387,0.20470795,0.0,0.0,0.0,0.0,0.0,0.0,0.0,0.0,0.0,2.937500,-0.125000,3.687500,0.0,0.0,0.0,0.0,0.0,0.0,0.0,0.0,0.0,-0.324707,-0.963867,0.121582,0.0,0.0,0.0,0.0,0.0,0.0,0.0,0.0,0.0
5.523954468,155,164,0.71871433,-0.66341453,0.03271600,0.20557366,0.0,0.0,0.0,0.0,0.0,0.0,0.0,0.0,0.0,1.375000,-1.187500,5.937500,0.0,0.0,0.0,0.0,0.0,0.0,0.0,0.0,0.0,-0.335938,-0.982910,0.118164,0.0,0.0,0.0,0.0,0.0,0.0,0.0,0.0,0.0
5.540946338,156,165,0.71857192,-0.66315161,0.03350854,0.20678856,0.0,0.0,0.0,0.0,0.0,0.0,0.0,0.0,0.0,1.062500,-2.062500,6.500000,0.0,0.0,0.0,0.0,0.0,0.0,0.0,0.0,0.0,-0.354004,-0.951172,0.120117,0.0,0.0,0.0,0.0,0.0,0.0,0.0,0.0,0.0
5.562174552,156,166,0.71849740,-0.66301709,0.03326377,0.20751709,0.0,0.0,0.0,0.0,0.0,0.0,0.0,0.0,0.0,0.187500,-3.937500,3.125000,0.0,0.0,0.0,0.0,0.0,0.0,0.0,0.0,0.0,-0.313965,-0.955078,0.116211,0.0,0.0,0.0,0.0,0.0,0.0,0.0,0.0,0.0
5.583940750,157,167,0.71905757,-0.66241676,0.03271495,0.20758126,0.0,0.0,0.0,0.0,0.0,0.0,0.0,0.0,0.0,3.937500,-2.687500,0.125000,0.0,0.0,0.0,0.0,0.0,0.0,0.0,0.0,0.0,-0.289062,-0.957520,0.125488,0.0,0.0,0.0,0.0,0.0,0.0,0.0,0.0,0.0
5.611147473,158,168,0.71967100,-0.66180923,0.03228784,0.20746007,0.0,0.0,0.0,0.0,0.0,0.0,0.0,0.0,0.0,4.937500,-2.562500,-1.687500,0.0,0.0,0.0,0.0,0.0,0.0,0.0,0.0,0.0,-0.305176,-0.935547,0.111328,0.0,0.0,0.0,0.0,0.0,0.0,0.0,0.0,0.0
5.622011790,158,168,0.71984651,-0.66174122,0.03173819,0.20715271,0.0,0.0,0.0,0.0,0.0,0.0,0.0,0.0,0.0,0.312500,-0.750000,-1.875000,0.0,0.0,0.0,0.0,0.0,0.0,0.0,0.0,0.0,-0.288574,-0.932129,0.119141,0.0,0.0,0.0,0.0,0.0,0.0,0.0,0.0,0.0
5.645775631,159,169,0.71937119,-0.66254661,0.03125047,0.20630194,0.0,0.0,0.0,0.0,0.0,0.0,0.0,0.0,0.0,-4.812500,2.000000,-3.000000,0.0,0.0,0.0,0.0,0.0,0.0,0.0,0.0,0.0,-0.292969,-0.944336,0.110840,0.0,0.0,0.0,0.0,0.0,0.0,0.0,0.0,0.0
5.660799182,160,170,0.71839915,-0.66364944,0.03100652,0.20618117,0.0,0.0,0.0,0.0,0.0,0.0,0.0,0.0,0.0,-8.062500,0.625000,-0.875000,0.0,0.0,0.0,0.0,0.0,0.0,0.0,0.0,0.0,-0.335938,-0.981445,0.111328,0.0,0.0,0.0,0.0,0.0,0.0,0.0,0.0,0.0
5.681479516,160,170,0.71785719,-0.66420559,0.03082373,0.20630536,0.0,0.0,0.0,0.0,0.0,0.0,0.0,0.0,0.0,-4.562500,-0.437500,0.187500,0.0,0.0,0.0,0.0,0.0,0.0,0.0,0.0,0.0,-0.335938,-0.974609,0.120605,0.0,0.0,0.0,0.0,0.0,0.0,0.0,0.0,0.0
5.704074166,161,171,0.71795435,-0.66399943,0.03100576,0.20660337,0.0,0.0,0.0,0.0,0.0,0.0,0.0,0.0,0.0,1.250000,-0.625000,0.687500,0.0,0.0,0.0,0.0,0.0,0.0,0.0,0.0,0.0,-0.346191,-0.979980,0.123047,0.0,0.0,0.0,0.0,0.0,0.0,0.0,0.0,0.0
5.720772202,161,171,0.71808455,-0.66370177,0.03149440,0.20703296,0.0,0.0,0.0,0.0,0.0,0.0,0.0,0.0,0.0,1.187500,-0.187500,2.437500,0.0,0.0,0.0,0.0,0.0,0.0,0.0,0.0,0.0,-0.343262,-0.961426,0.130859,0.0,0.0,0.0,0.0,0.0,0.0,0.0,0.0,0.0
5.742342103,162,172,0.71814580,-0.66357990,0.03186062,0.20715509,0.0,0.0,0.0,0.0,0.0,0.0,0.0,0.0,0.0,0.437500,1.250000,1.750000,0.0,0.0,0.0,0.0,0.0,0.0,0.0,0.0,0.0,-0.328125,-0.961914,0.136230,0.0,0.0,0.0,0.0,0.0,0.0,0.0,0.0,0.0
5.771524850,163,173,0.71836765,-0.66331517,0.03240894,0.20714867,0.0,0.0,0.0,0.0,0.0,0.0,0.0,0.0,0.0,0.500000,2.687500,2.812500,0.0,0.0,0.0,0.0,0.0,0.0,0.0,0.0,0.0,-0.321289,-0.979004,0.151367,0.0,0.0,0.0,0.0,0.0,0.0,0.0,0.0,0.0
5.781808267,163,173,0.71857922,-0.66291420,0.03350888,0.20752309,0.0,0.0,0.0,0.0,0.0,0.0,0.0,0.0,0.0,2.437500,2.875000,4.937500,0.0,0.0,0.0,0.0,0.0,0.0,0.0,0.0,0.0,-0.346680,-0.972168,0.139160,0.0,0.0,0.0,0.0,0.0,0.0,0.0,0.0,0.0
5.801524807,164,174,0.71868836,-0.66259710,0.03479001,0.20794660,0.0,0.0,0.0,0.0,0.0,0.0,0.0,0.0,0.0,1.812500,3.562500,6.562500,0.0,0.0,0.0,0.0,0.0,0.0,0.0,0.0,0.0,-0.335449,-0.967773,0.144043,0.0,0.0,0.0,0.0,0.0,0.0,0.0,0.0,0.0
5.823813985,164,174,0.71838296,-0.66265793,0.03625484,0.20855689,0.0,0.0,0.0,0.0,0.0,0.0,0.0,0.0,0.0,-0.625000,4.125000,7.375000,0.0,0.0,0.0,0.0,0.0,0.0,0.0,0.0,0.0,-0.348145,-0.944824,0.135254,0.0,0.0,0.0,0.0,0.0,0.0,0.0,0.0,0.0
5.844178857,165,175,0.71790876,-0.66297610,0.03698799,0.20904927,0.0,0.0,0.0,0.0,0.0,0.0,0.0,0.0,0.0,-2.312500,1.812500,6.125000,0.0,0.0,0.0,0.0,0.0,0.0,0.0,0.0,0.0,-0.330566,-0.975586,0.122070,0.0,0.0,0.0,0.0,0.0,0.0,0.0,0.0,0.0
5.861707778,166,176,0.71808459,-0.66260317,0.03784211,0.20947440,0.0,0.0,0.0,0.0,0.0,0.0,0.0,0.0,0.0,2.125000,1.875000,6.312500,0.0,0.0,0.0,0.0,0.0,0.0,0.0,0.0,0.0,-0.321289,-0.967773,0.137207,0.0,0.0,0.0,0.0,0.0,0.0,0.0,0.0,0.0
5.884328132,166,176,0.71899290,-0.66168099,0.03875726,0.20910608,0.0,0.0,0.0,0.0,0.0,0.0,0.0,0.0,0.0,8.250000,4.062500,2.500000,0.0,0.0,0.0,0.0,0.0,0.0,0.0,0.0,0.0,-0.323242,-0.966797,0.125488,0.0,0.0,0.0,0.0,0.0,0.0,0.0,0.0,0.0
5.900683618,167,177,0.71955238,-0.66101894,0.04028370,0.20898697,0.0,0.0,0.0,0.0,0.0,0.0,0.0,0.0,0.0,6.500000,5.937500,4.812500,0.0,0.0,0.0,0.0,0.0,0.0,0.0,0.0,0.0,-0.336426,-0.951660,0.130859,0.0,0.0,0.0,0.0,0.0,0.0,0.0,0.0,0.0
5.923859053,167,177,0.71997408,-0.66040348,0.04187031,0.20916846,0.0,0.0,0.0,0.0,0.0,0.0,0.0,0.0,0.0,4.750000,5.500000,6.062500,0.0,0.0,0.0,0.0,0.0,0.0,0.0,0.0,0.0,-0.350098,-0.957031,0.142578,0.0,0.0,0.0,0.0,0.0,0.0,0.0,0.0,0.0
5.944360271,168,178,0.72031737,-0.65995524,0.04363895,0.20903974,0.0,0.0,0.0,0.0,0.0,0.0,0.0,0.0,0.0,4.437500,7.187500,5.875000,0.0,0.0,0.0,0.0,0.0,0.0,0.0,0.0,0.0,-0.344727,-0.954590,0.140625,0.0,0.0,0.0,0.0,0.0,0.0,0.0,0.0,0.0
5.961494521,169,179,0.72060119,-0.65962536,0.04559454,0.20868503,0.0,0.0,0.0,0.0,0.0,0.0,0.0,0.0,0.0,4.500000,9.000000,5.625000,0.0,0.0,0.0,0.0,0.0,0.0,0.0,0.0,0.0,-0.346680,-0.950684,0.130371,0.0,0.0,0.0,0.0,0.0,0.0,0.0,0.0,0.0
5.981418652,169,179,0.72046102,-0.65973087,0.04711927,0.20849668,0.0,0.0,0.0,0.0,0.0,0.0,0.0,0.0,0.0,1.625000,6.750000,5.000000,0.0,0.0,0.0,0.0,0.0,0.0,0.0,0.0,0.0,-0.362305,-0.967773,0.117188,0.0,0.0,0.0,0.0,0.0,0.0,0.0,0.0,0.0
6.004093395,170,180,0.72075893,-0.65929697,0.04809535,0.20861665,0.0,0.0,0.0,0.0,0.0,0.0,0.0,0.0,0.0,4.125000,3.375000,4.687500,0.0,0.0,0.0,0.0,0.0,0.0,0.0,0.0,0.0,-0.337891,-0.943848,0.129883,0.0,0.0,0.0,0.0,0.0,0.0,0.0,0.0,0.0
6.021242415,170,180,0.72132454,-0.65857943,0.04888991,0.20874343,0.0,0.0,0.0,0.0,0.0,0.0,0.0,0.0,0.0,6.062500,1.562500,4.250000,0.0,0.0,0.0,0.0,0.0,0.0,0.0,0.0,0.0,-0.336914,-0.959961,0.129395,0.0,0.0,0.0,0.0,0.0,0.0,0.0,0.0,0.0
6.049531821,170,181,0.72175159,-0.65796889,0.04950026,0.20904856,0.0,0.0,0.0,0.0,0.0,0.0,0.0,0.0,0.0,5.000000,0.687500,3.875000,0.0,0.0,0.0,0.0,0.0,0.0,0.0,0.0,0.0,-0.341797,-0.937012,0.124512,0.0,0.0,0.0,0.0,0.0,0.0,0.0,0.0,0.0
6.064493429,171,182,0.72187330,-0.65766338,0.05023266,0.20941467,0.0,0.0,0.0,0.0,0.0,0.0,0.0,0.0,0.0,3.000000,0.937500,3.812500,0.0,0.0,0.0,0.0,0.0,0.0,0.0,0.0,0.0,-0.358887,-0.944824,0.128418,0.0,0.0,0.0,0.0,0.0,0.0,0.0,0.0,0.0
6.081084704,171,182,0.72197940,-0.65728262,0.05090293,0.21008142,0.0,0.0,0.0,0.0,0.0,0.0,0.0,0.0,0.0,2.125000,-0.187500,5.250000,0.0,0.0,0.0,0.0,0.0,0.0,0.0,0.0,0.0,-0.359863,-0.946777,0.135742,0.0,0.0,0.0,0.0,0.0,0.0,0.0,0.0,0.0
6.103060846,171,183,0.72234724,-0.65667376,0.05126926,0.21063121,0.0,0.0,0.0,0.0,0.0,0.0,0.0,0.0,0.0,4.062500,-1.375000,2.625000,0.0,0.0,0.0,0.0,0.0,0.0,0.0,0.0,0.0,-0.357422,-0.929688,0.135254,0.0,0.0,0.0,0.0,0.0,0.0,0.0,0.0,0.0
6.131923923,171,183,0.72241889,-0.65662237,0.05090380,0.21063430,0.0,0.0,0.0,0.0,0.0,0.0,0.0,0.0,0.0,0.812500,-1.687500,-0.562500,0.0,0.0,0.0,0.0,0.0,0.0,0.0,0.0,0.0,-0.344727,-0.936523,0.122559,0.0,0.0,0.0,0.0,0.0,0.0,0.0,0.0,0.0
6.141455069,171,184,0.72228667,-0.65679626,0.05029273,0.21069238,0.0,0.0,0.0,0.0,0.0,0.0,0.0,0.0,0.0,-2.062500,-2.312500,-0.375000,0.0,0.0,0.0,0.0,0.0,0.0,0.0,0.0,0.0,-0.329102,-0.942871,0.131836,0.0,0.0,0.0,0.0,0.0,0.0,0.0,0.0,0.0
6.163282649,172,184,0.72212003,-0.65699434,0.04956145,0.21081925,0.0,0.0,0.0,0.0,0.0,0.0,0.0,0.0,0.0,-1.375000,-3.437500,-0.500000,0.0,0.0,0.0,0.0,0.0,0.0,0.0,0.0,0.0,-0.340332,-0.961426,0.124023,0.0,0.0,0.0,0.0,0.0,0.0,0.0,0.0,0.0
6.183992365,172,185,0.72204808,-0.65698441,0.04919448,0.21118228,0.0,0.0,0.0,0.0,0.0,0.0,0.0,0.0,0.0,-0.562500,-2.812500,1.187500,0.0,0.0,0.0,0.0,0.0,0.0,0.0,0.0,0.0,-0.335938,-0.943848,0.132324,0.0,0.0,0.0,0.0,0.0,0.0,0.0,0.0,0.0
6.201986504,172,185,0.72193093,-0.65698888,0.04901171,0.21161097,0.0,0.0,0.0,0.0,0.0,0.0,0.0,0.0,0.0,-1.250000,-2.250000,0.937500,0.0,0.0,0.0,0.0,0.0,0.0,0.0,0.0,0.0,-0.363281,-0.959961,0.140137,0.0,0.0,0.0,0.0,0.0,0.0,0.0,0.0,0.0
6.221473645,173,186,0.72190328,-0.65684166,0.04852157,0.21227423,0.0,0.0,0.0,0.0,0.0,0.0,0.0,0.0,0.0,-0.437500,-4.687500,0.437500,0.0,0.0,0.0,0.0,0.0,0.0,0.0,0.0,0.0,-0.364746,-0.942383,0.136230,0.0,0.0,0.0,0.0,0.0,0.0,0.0,0.0,0.0
6.244568708,174,187,0.72203950,-0.65661039,0.04772907,0.21270563,0.0,0.0,0.0,0.0,0.0,0.0,0.0,0.0,0.0,0.375000,-5.437500,-0.750000,0.0,0.0,0.0,0.0,0.0,0.0,0.0,0.0,0.0,-0.342285,-0.940918,0.133301,0.0,0.0,0.0,0.0,0.0,0.0,0.0,0.0,0.0
6.260598817,175,188,0.72222960,-0.65643365,0.04699711,0.21276873,0.0,0.0,0.0,0.0,0.0,0.0,0.0,0.0,0.0,-0.562500,-3.000000,-1.187500,0.0,0.0,0.0,0.0,0.0,0.0,0.0,0.0,0.0,-0.328125,-0.934570,0.148438,0.0,0.0,0.0,0.0,0.0,0.0,0.0,0.0,0.0
6.282023816,175,188,0.72193863,-0.65675175,0.04644871,0.21289499,0.0,0.0,0.0,0.0,0.0,0.0,0.0,0.0,0.0,-2.750000,-2.312500,-0.500000,0.0,0.0,0.0,0.0,0.0,0.0,0.0,0.0,0.0,-0.345703,-0.955566,0.135742,0.0,0.0,0.0,0.0,0.0,0.0,0.0,0.0,0.0
6.304563927,176,189,0.72169686,-0.65687598,0.04620471,0.21338398,0.0,0.0,0.0,0.0,0.0,0.0,0.0,0.0,0.0,-2.000000,-2.687500,0.812500,0.0,0.0,0.0,0.0,0.0,0.0,0.0,0.0,0.0,-0.367188,-0.962402,0.137207,0.0,0.0,0.0,0.0,0.0,0.0,0.0,0.0,0.0
6.321794137,176,189,0.72170235,-0.65681994,0.04577780,0.21362976,0.0,0.0,0.0,0.0,0.0,0.0,0.0,0.0,0.0,-0.750000,-2.625000,-0.250000,0.0,0.0,0.0,0.0,0.0,0.0,0.0,0.0,0.0,-0.350586,-0.952148,0.142090,0.0,0.0,0.0,0.0,0.0,0.0,0.0,0.0,0.0
6.341484757,177,190,0.72169558,-0.65681378,0.04541116,0.21374982,0.0,0.0,0.0,0.0,0.0,0.0,0.0,0.0,0.0,-1.437500,-1.687500,-0.625000,0.0,0.0,0.0,0.0,0.0,0.0,0.0,0.0,0.0,-0.350586,-0.948730,0.147949,0.0,0.0,0.0,0.0,0.0,0.0,0.0,0.0,0.0
6.364571425,178,191,0.72132464,-0.65717570,0.04492257,0.21399257,0.0,0.0,0.0,0.0,0.0,0.0,0.0,0.0,0.0,-3.812500,-2.250000,-0.562500,0.0,0.0,0.0,0.0,0.0,0.0,0.0,0.0,0.0,-0.356934,-0.953613,0.141602,0.0,0.0,0.0,0.0,0.0,0.0,0.0,0.0,0.0
6.388941110,178,191,0.72126396,-0.65717602,0.04443430,0.21429786,0.0,0.0,0.0,0.0,0.0,0.0,0.0,0.0,0.0,-1.000000,-3.000000,-0.125000,0.0,0.0,0.0,0.0,0.0,0.0,0.0,0.0,0.0,-0.353516,-0.969238,0.139160,0.0,0.0,0.0,0.0,0.0,0.0,0.0,0.0,0.0
6.403180490,179,192,0.72149825,-0.65680083,0.04412852,0.21472218,0.0,0.0,0.0,0.0,0.0,0.0,0.0,0.0,0.0,1.625000,-3.312500,0.500000,0.0,0.0,0.0,0.0,0.0,0.0,0.0,0.0,0.0,-0.357422,-0.958496,0.143555,0.0,0.0,0.0,0.0,0.0,0.0,0.0,0.0,0.0
6.440345357,180,193,0.72162583,-0.65650067,0.04382368,0.21527314,0.0,0.0,0.0,0.0,0.0,0.0,0.0,0.0,0.0,0.562500,-3.375000,0.937500,0.0,0.0,0.0,0.0,0.0,0.0,0.0,0.0,0.0,-0.351562,-0.947266,0.147949,0.0,0.0,0.0,0.0,0.0,0.0,0.0,0.0,0.0
6.443110048,180,193,0.72193998,-0.65614261,0.04339697,0.21539788,0.0,0.0,0.0,0.0,0.0,0.0,0.0,0.0,0.0,1.562500,-2.812500,-0.812500,0.0,0.0,0.0,0.0,0.0,0.0,0.0,0.0,0.0,-0.343262,-0.939453,0.143066,0.0,0.0,0.0,0.0,0.0,0.0,0.0,0.0,0.0
6.463486358,181,194,0.72195412,-0.65603339,0.04297055,0.21576833,0.0,0.0,0.0,0.0,0.0,0.0,0.0,0.0,0.0,-0.937500,-3.062500,-0.187500,0.0,0.0,0.0,0.0,0.0,0.0,0.0,0.0,0.0,-0.347168,-0.933105,0.147949,0.0,0.0,0.0,0.0,0.0,0.0,0.0,0.0,0.0
6.484310325,181,194,0.72187334,-0.65601544,0.04248109,0.21618968,0.0,0.0,0.0,0.0,0.0,0.0,0.0,0.0,0.0,-1.312500,-3.500000,0.187500,0.0,0.0,0.0,0.0,0.0,0.0,0.0,0.0,0.0,-0.356934,-0.962402,0.143555,0.0,0.0,0.0,0.0,0.0,0.0,0.0,0.0,0.0
6.501303950,182,195,0.72183680,-0.65591563,0.04211630,0.21668532,0.0,0.0,0.0,0.0,0.0,0.0,0.0,0.0,0.0,-0.562500,-3.375000,0.187500,0.0,0.0,0.0,0.0,0.0,0.0,0.0,0.0,0.0,-0.359863,-0.950684,0.144043,0.0,0.0,0.0,0.0,0.0,0.0,0.0,0.0,0.0
6.523107192,182,195,0.72193365,-0.65577064,0.04180965,0.21686086,0.0,0.0,0.0,0.0,0.0,0.0,0.0,0.0,0.0,-0.312500,-1.750000,-0.312500,0.0,0.0,0.0,0.0,0.0,0.0,0.0,0.0,0.0,-0.350098,-0.955566,0.150879,0.0,0.0,0.0,0.0,0.0,0.0,0.0,0.0,0.0
6.551753934,183,196,0.72195827,-0.65579300,0.04162796,0.21674618,0.0,0.0,0.0,0.0,0.0,0.0,0.0,0.0,0.0,-1.187500,0.187500,-0.375000,0.0,0.0,0.0,0.0,0.0,0.0,0.0,0.0,0.0,-0.334473,-0.932617,0.153809,0.0,0.0,0.0,0.0,0.0,0.0,0.0,0.0,0.0
6.561610934,183,196,0.72162818,-0.65625866,0.04132135,0.21649456,0.0,0.0,0.0,0.0,0.0,0.0,0.0,0.0,0.0,-3.750000,0.437500,-0.812500,0.0,0.0,0.0,0.0,0.0,0.0,0.0,0.0,0.0,-0.336914,-0.947266,0.143555,0.0,0.0,0.0,0.0,0.0,0.0,0.0,0.0,0.0
6.583073547,184,197,0.72131567,-0.65661820,0.04107678,0.21649236,0.0,0.0,0.0,0.0,0.0,0.0,0.0,0.0,0.0,-3.687500,-0.312500,-1.062500,0.0,0.0,0.0,0.0,0.0,0.0,0.0,0.0,0.0,-0.353516,-0.953125,0.144043,0.0,0.0,0.0,0.0,0.0,0.0,0.0,0.0,0.0
6.608355357,185,198,0.72103366,-0.65694450,0.04077292,0.21649931,0.0,0.0,0.0,0.0,0.0,0.0,0.0,0.0,0.0,-2.062500,-1.125000,-0.625000,0.0,0.0,0.0,0.0,0.0,0.0,0.0,0.0,0.0,-0.357422,-0.970215,0.128418,0.0,0.0,0.0,0.0,0.0,0.0,0.0,0.0,0.0
6.620938337,185,198,0.72103366,-0.65694450,0.04077292,0.21649931,0.0,0.0,0.0,0.0,0.0,0.0,0.0,0.0,0.0,-1.000000,-0.562500,-0.562500,0.0,0.0,0.0,0.0,0.0,0.0,0.0,0.0,0.0,-0.346680,-0.948242,0.138184,0.0,0.0,0.0,0.0,0.0,0.0,0.0,0.0,0.0
6.644077917,186,199,0.72084282,-0.65724263,0.04065041,0.21625285,0.0,0.0,0.0,0.0,0.0,0.0,0.0,0.0,0.0,-2.000000,1.000000,-0.875000,0.0,0.0,0.0,0.0,0.0,0.0,0.0,0.0,0.0,-0.339355,-0.937012,0.133789,0.0,0.0,0.0,0.0,0.0,0.0,0.0,0.0,0.0
6.664731725,187,200,0.72046437,-0.65765872,0.04064972,0.21624917,0.0,0.0,0.0,0.0,0.0,0.0,0.0,0.0,0.0,-3.312500,0.625000,-0.125000,0.0,0.0,0.0,0.0,0.0,0.0,0.0,0.0,0.0,-0.359375,-0.954590,0.134766,0.0,0.0,0.0,0.0,0.0,0.0,0.0,0.0,0.0
6.680711074,187,200,0.72008570,-0.65807459,0.04064901,0.21624543,0.0,0.0,0.0,0.0,0.0,0.0,0.0,0.0,0.0,-3.375000,0.375000,-0.500000,0.0,0.0,0.0,0.0,0.0,0.0,0.0,0.0,0.0,-0.366699,-0.947266,0.137695,0.0,0.0,0.0,0.0,0.0,0.0,0.0,0.0,0.0
6.703401800,188,201,0.71974345,-0.65846271,0.04071140,0.21619160,0.0,0.0,0.0,0.0,0.0,0.0,0.0,0.0,0.0,-3.187500,0.875000,-0.375000,0.0,0.0,0.0,0.0,0.0,0.0,0.0,0.0,0.0,-0.363770,-0.961426,0.135742,0.0,0.0,0.0,0.0,0.0,0.0,0.0,0.0,0.0
6.724471551,188,201,0.71972223,-0.65850433,0.04077124,0.21612419,0.0,0.0,0.0,0.0,0.0,0.0,0.0,0.0,0.0,-1.187500,0.875000,-0.750000,0.0,0.0,0.0,0.0,0.0,0.0,0.0,0.0,0.0,-0.356934,-0.946777,0.146973,0.0,0.0,0.0,0.0,0.0,0.0,0.0,0.0,0.0
6.741695435,189,202,0.71954939,-0.65863580,0.04071079,0.21631038,0.0,0.0,0.0,0.0,0.0,0.0,0.0,0.0,0.0,-1.375000,-0.937500,-0.062500,0.0,0.0,0.0,0.0,0.0,0.0,0.0,0.0,0.0,-0.368652,-0.958984,0.132324,0.0,0.0,0.0,0.0,0.0,0.0,0.0,0.0,0.0
6.764367859,190,203,0.71948510,-0.65869386,0.04058853,0.21637043,0.0,0.0,0.0,0.0,0.0,0.0,0.0,0.0,0.0,-1.437500,-0.312500,-0.125000,0.0,0.0,0.0,0.0,0.0,0.0,0.0,0.0,0.0,-0.349609,-0.954102,0.146484,0.0,0.0,0.0,0.0,0.0,0.0,0.0,0.0,0.0
6.785067147,190,203,0.71956688,-0.65877388,0.04040659,0.21588837,0.0,0.0,0.0,0.0,0.0,0.0,0.0,0.0,0.0,-0.625000,1.687500,-1.187500,0.0,0.0,0.0,0.0,0.0,0.0,0.0,0.0,0.0,-0.325684,-0.945801,0.137695,0.0,0.0,0.0,0.0,0.0,0.0,0.0,0.0,0.0
6.801543256,191,204,0.71955228,-0.65894363,0.04052784,0.21539571,0.0,0.0,0.0,0.0,0.0,0.0,0.0,0.0,0.0,-1.187500,2.750000,-0.562500,0.0,0.0,0.0,0.0,0.0,0.0,0.0,0.0,0.0,-0.328125,-0.939941,0.137207,0.0,0.0,0.0,0.0,0.0,0.0,0.0,0.0,0.0
6.830553720,192,205,0.71906600,-0.65967790,0.04077210,0.21472491,0.0,0.0,0.0,0.0,0.0,0.0,0.0,0.0,0.0,-5.125000,4.937500,-0.687500,0.0,0.0,0.0,0.0,0.0,0.0,0.0,0.0,0.0,-0.329590,-0.932129,0.140137,0.0,0.0,0.0,0.0,0.0,0.0,0.0,0.0,0.0
6.845283877,192,205,0.71818991,-0.66093980,0.04125915,0.21368088,0.0,0.0,0.0,0.0,0.0,0.0,0.0,0.0,0.0,-8.750000,8.375000,0.125000,0.0,0.0,0.0,0.0,0.0,0.0,0.0,0.0,0.0,-0.327637,-0.964844,0.143066,0.0,0.0,0.0,0.0,0.0,0.0,0.0,0.0,0.0
6.867979258,193,206,0.71744211,-0.66201949,0.04223838,0.21265682,0.0,0.0,0.0,0.0,0.0,0.0,0.0,0.0,0.0,-6.375000,9.625000,1.125000,0.0,0.0,0.0,0.0,0.0,0.0,0.0,0.0,0.0,-0.344238,-0.974121,0.133789,0.0,0.0,0.0,0.0,0.0,0.0,0.0,0.0,0.0
6.883409784,193,206,0.71699178,-0.66266959,0.04309153,0.21197859,0.0,0.0,0.0,0.0,0.0,0.0,0.0,0.0,0.0,-3.500000,7.250000,1.187500,0.0,0.0,0.0,0.0,0.0,0.0,0.0,0.0,0.0,-0.354980,-0.973633,0.131348,0.0,0.0,0.0,0.0,0.0,0.0,0.0,0.0,0.0
6.904127499,194,207,0.71666542,-0.66301622,0.04351750,0.21191129,0.0,0.0,0.0,0.0,0.0,0.0,0.0,0.0,0.0,-2.375000,2.250000,0.062500,0.0,0.0,0.0,0.0,0.0,0.0,0.0,0.0,0.0,-0.372559,-0.955078,0.117188,0.0,0.0,0.0,0.0,0.0,0.0,0.0,0.0,0.0
6.943897630,195,208,0.71637731,-0.66315408,0.04345750,0.21246566,0.0,0.0,0.0,0.0,0.0,0.0,0.0,0.0,0.0,-1.687500,-2.437500,1.000000,0.0,0.0,0.0,0.0,0.0,0.0,0.0,0.0,0.0,-0.379883,-0.966309,0.118652,0.0,0.0,0.0,0.0,0.0,0.0,0.0,0.0,0.0
6.947544390,195,208,0.71661469,-0.66265955,0.04290777,0.21331815,0.0,0.0,0.0,0.0,0.0,0.0,0.0,0.0,0.0,2.312500,-6.500000,0.250000,0.0,0.0,0.0,0.0,0.0,0.0,0.0,0.0,0.0,-0.372559,-0.974609,0.121094,0.0,0.0,0.0,0.0,0.0,0.0,0.0,0.0,0.0
6.964549759,196,209,0.71721888,-0.66186040,0.04241912,0.21386563,0.0,0.0,0.0,0.0,0.0,0.0,0.0,0.0,0.0,4.125000,-4.625000,0.687500,0.0,0.0,0.0,0.0,0.0,0.0,0.0,0.0,0.0,-0.336914,-0.949219,0.129883,0.0,0.0,0.0,0.0,0.0,0.0,0.0,0.0,0.0
6.986825389,196,209,0.71770818,-0.66137306,0.04235815,0.21374386,0.0,0.0,0.0,0.0,0.0,0.0,0.0,0.0,0.0,3.125000,-0.312500,-0.250000,0.0,0.0,0.0,0.0,0.0,0.0,0.0,0.0,0.0,-0.331543,-0.931641,0.131348,0.0,0.0,0.0,0.0,0.0,0.0,0.0,0.0,0.0
7.003403787,197,210,0.71767388,-0.66145874,0.04217662,0.21362975,0.0,0.0,0.0,0.0,0.0,0.0,0.0,0.0,0.0,-1.062500,-0.187500,-1.687500,0.0,0.0,0.0,0.0,0.0,0.0,0.0,0.0,0.0,-0.351074,-0.940918,0.129395,0.0,0.0,0.0,0.0,0.0,0.0,0.0,0.0,0.0
7.024444944,197,210,0.71735540,-0.66169062,0.04180962,0.21405304,0.0,0.0,0.0,0.0,0.0,0.0,0.0,0.0,0.0,-3.562500,-2.625000,0.187500,0.0,0.0,0.0,0.0,0.0,0.0,0.0,0.0,0.0,-0.362305,-0.959473,0.139160,0.0,0.0,0.0,0.0,0.0,0.0,0.0,0.0,0.0
7.046870916,198,211,0.71731200,-0.66158482,0.04138338,0.21460764,0.0,0.0,0.0,0.0,0.0,0.0,0.0,0.0,0.0,-0.687500,-3.750000,0.687500,0.0,0.0,0.0,0.0,0.0,0.0,0.0,0.0,0.0,-0.355469,-0.963867,0.128906,0.0,0.0,0.0,0.0,0.0,0.0,0.0,0.0,0.0
7.063422408,198,211,0.71754022,-0.66120391,0.04132143,0.21503013,0.0,0.0,0.0,0.0,0.0,0.0,0.0,0.0,0.0,1.812500,-2.437500,1.687500,0.0,0.0,0.0,0.0,0.0,0.0,0.0,0.0,0.0,-0.345703,-0.951172,0.132812,0.0,0.0,0.0,0.0,0.0,0.0,0.0,0.0,0.0
7.083855722,199,212,0.71734860,-0.66113503,0.04162612,0.21582104,0.0,0.0,0.0,0.0,0.0,0.0,0.0,0.0,0.0,-0.125000,-1.812500,3.937500,0.0,0.0,0.0,0.0,0.0,0.0,0.0,0.0,0.0,-0.357910,-0.943848,0.115723,0.0,0.0,0.0,0.0,0.0,0.0,0.0,0.0,0.0
7.108557919,200,213,0.71702530,-0.66124039,0.04174713,0.21654799,0.0,0.0,0.0,0.0,0.0,0.0,0.0,0.0,0.0,-1.750000,-2.062500,3.000000,0.0,0.0,0.0,0.0,0.0,0.0,0.0,0.0,0.0,-0.373535,-0.958496,0.128906,0.0,0.0,0.0,0.0,0.0,0.0,0.0,0.0,0.0
7.123579929,200,213,0.71693557,-0.66096503,0.04156591,0.21771745,0.0,0.0,0.0,0.0,0.0,0.0,0.0,0.0,0.0,-0.062500,-5.750000,2.812500,0.0,0.0,0.0,0.0,0.0,0.0,0.0,0.0,0.0,-0.382324,-0.969238,0.133789,0.0,0.0,0.0,0.0,0.0,0.0,0.0,0.0,0.0
7.144417826,201,214,0.71687762,-0.66060166,0.04095572,0.21912224,0.0,0.0,0.0,0.0,0.0,0.0,0.0,0.0,0.0,0.062500,-8.125000,4.187500,0.0,0.0,0.0,0.0,0.0,0.0,0.0,0.0,0.0,-0.351562,-0.953125,0.128906,0.0,0.0,0.0,0.0,0.0,0.0,0.0,0.0,0.0
7.166855468,202,215,0.71723395,-0.65998219,0.03979547,0.22003475,0.0,0.0,0.0,0.0,0.0,0.0,0.0,0.0,0.0,1.812500,-8.812500,0.875000,0.0,0.0,0.0,0.0,0.0,0.0,0.0,0.0,0.0,-0.324707,-0.951172,0.132324,0.0,0.0,0.0,0.0,0.0,0.0,0.0,0.0,0.0
7.184781330,202,215,0.71760531,-0.65931552,0.03906332,0.22095188,0.0,0.0,0.0,0.0,0.0,0.0,0.0,0.0,0.0,2.375000,-7.062500,2.125000,0.0,0.0,0.0,0.0,0.0,0.0,0.0,0.0,0.0,-0.327148,-0.938477,0.135254,0.0,0.0,0.0,0.0,0.0,0.0,0.0,0.0,0.0
7.203884845,203,216,0.71759696,-0.65906370,0.03863561,0.22180381,0.0,0.0,0.0,0.0,0.0,0.0,0.0,0.0,0.0,0.812500,-5.125000,2.812500,0.0,0.0,0.0,0.0,0.0,0.0,0.0,0.0,0.0,-0.350098,-0.966797,0.126465,0.0,0.0,0.0,0.0,0.0,0.0,0.0,0.0,0.0
7.226821417,203,216,0.71798528,-0.65847362,0.03863680,0.22229894,0.0,0.0,0.0,0.0,0.0,0.0,0.0,0.0,0.0,3.562500,-3.000000,2.000000,0.0,0.0,0.0,0.0,0.0,0.0,0.0,0.0,0.0,-0.343262,-0.930176,0.131348,0.0,0.0,0.0,0.0,0.0,0.0,0.0,0.0,0.0
7.243862987,204,217,0.71788780,-0.65844020,0.03826863,0.22277593,0.0,0.0,0.0,0.0,0.0,0.0,0.0,0.0,0.0,-1.250000,-2.937500,1.500000,0.0,0.0,0.0,0.0,0.0,0.0,0.0,0.0,0.0,-0.344727,-0.951660,0.140137,0.0,0.0,0.0,0.0,0.0,0.0,0.0,0.0,0.0
7.271837988,205,218,0.71765548,-0.65845104,0.03814719,0.22351202,0.0,0.0,0.0,0.0,0.0,0.0,0.0,0.0,0.0,-0.812500,-3.437500,2.875000,0.0,0.0,0.0,0.0,0.0,0.0,0.0,0.0,0.0,-0.356934,-0.953613,0.129395,0.0,0.0,0.0,0.0,0.0,0.0,0.0,0.0,0.0
7.286858322,205,218,0.71771260,-0.65808123,0.03808595,0.22442633,0.0,0.0,0.0,0.0,0.0,0.0,0.0,0.0,0.0,1.312500,-4.062500,3.187500,0.0,0.0,0.0,0.0,0.0,0.0,0.0,0.0,0.0,-0.368164,-0.953125,0.133301,0.0,0.0,0.0,0.0,0.0,0.0,0.0,0.0,0.0
7.303901174,206,219,0.71789324,-0.65765173,0.03778064,0.22515798,0.0,0.0,0.0,0.0,0.0,0.0,0.0,0.0,0.0,1.625000,-4.687500,1.625000,0.0,0.0,0.0,0.0,0.0,0.0,0.0,0.0,0.0,-0.365234,-0.962891,0.141113,0.0,0.0,0.0,0.0,0.0,0.0,0.0,0.0,0.0
7.333226259,207,220,0.71814979,-0.65717481,0.03753715,0.22577223,0.0,0.0,0.0,0.0,0.0,0.0,0.0,0.0,0.0,2.437500,-3.937500,1.125000,0.0,0.0,0.0,0.0,0.0,0.0,0.0,0.0,0.0,-0.354004,-0.937988,0.132324,0.0,0.0,0.0,0.0,0.0,0.0,0.0,0.0,0.0
7.346895062,207,220,0.71810841,-0.65707072,0.03717195,0.22626671,0.0,0.0,0.0,0.0,0.0,0.0,0.0,0.0,0.0,-0.937500,-3.187500,1.750000,0.0,0.0,0.0,0.0,0.0,0.0,0.0,0.0,0.0,-0.343262,-0.942383,0.147949,0.0,0.0,0.0,0.0,0.0,0.0,0.0,0.0,0.0
7.363566235,207,220,0.71771665,-0.65741355,0.03686545,0.22656384,0.0,0.0,0.0,0.0,0.0,0.0,0.0,0.0,0.0,-3.562500,-1.625000,1.812500,0.0,0.0,0.0,0.0,0.0,0.0,0.0,0.0,0.0,-0.341309,-0.948242,0.140625,0.0,0.0,0.0,0.0,0.0,0.0,0.0,0.0,0.0
7.386182343,208,221,0.71765412,-0.65753426,0.03668227,0.22644130,0.0,0.0,0.0,0.0,0.0,0.0,0.0,0.0,0.0,-1.187500,0.000000,-0.125000,0.0,0.0,0.0,0.0,0.0,0.0,0.0,0.0,0.0,-0.344727,-0.954102,0.136230,0.0,0.0,0.0,0.0,0.0,0.0,0.0,0.0,0.0
7.406846247,209,222,0.71747564,-0.65784368,0.03649940,0.22613758,0.0,0.0,0.0,0.0,0.0,0.0,0.0,0.0,0.0,-2.062500,1.250000,-0.375000,0.0,0.0,0.0,0.0,0.0,0.0,0.0,0.0,0.0,-0.327637,-0.928223,0.134766,0.0,0.0,0.0,0.0,0.0,0.0,0.0,0.0,0.0
7.423262727,209,222,0.71705166,-0.65839600,0.03637749,0.22589447,0.0,0.0,0.0,0.0,0.0,0.0,0.0,0.0,0.0,-4.437500,1.250000,-0.312500,0.0,0.0,0.0,0.0,0.0,0.0,0.0,0.0,0.0,-0.347168,-0.943359,0.133301,0.0,0.0,0.0,0.0,0.0,0.0,0.0,0.0,0.0
7.446058031,210,223,0.71643945,-0.65906570,0.03631636,0.22589388,0.0,0.0,0.0,0.0,0.0,0.0,0.0,0.0,0.0,-4.750000,0.500000,-0.312500,0.0,0.0,0.0,0.0,0.0,0.0,0.0,0.0,0.0,-0.371094,-0.957520,0.125488,0.0,0.0,0.0,0.0,0.0,0.0,0.0,0.0,0.0
7.466552624,211,224,0.71587378,-0.65966099,0.03631553,0.22594976,0.0,0.0,0.0,0.0,0.0,0.0,0.0,0.0,0.0,-3.750000,0.250000,0.625000,0.0,0.0,0.0,0.0,0.0,0.0,0.0,0.0,0.0,-0.363281,-0.951660,0.121582,0.0,0.0,0.0,0.0,0.0,0.0,0.0,0.0,0.0
7.483166442,211,224,0.71570780,-0.65998196,0.03637744,0.22552791,0.0,0.0,0.0,0.0,0.0,0.0,0.0,0.0,0.0,-1.687500,2.250000,-1.187500,0.0,0.0,0.0,0.0,0.0,0.0,0.0,0.0,0.0,-0.351074,-0.948242,0.125488,0.0,0.0,0.0,0.0,0.0,0.0,0.0,0.0,0.0
7.507606153,212,225,0.71530066,-0.66054986,0.03668365,0.22510699,0.0,0.0,0.0,0.0,0.0,0.0,0.0,0.0,0.0,-3.437500,3.937500,0.687500,0.0,0.0,0.0,0.0,0.0,0.0,0.0,0.0,0.0,-0.339844,-0.937012,0.125488,0.0,0.0,0.0,0.0,0.0,0.0,0.0,0.0,0.0
7.527214454,212,225,0.71471892,-0.66143543,0.03698716,0.22430333,0.0,0.0,0.0,0.0,0.0,0.0,0.0,0.0,0.0,-5.250000,5.437500,-0.562500,0.0,0.0,0.0,0.0,0.0,0.0,0.0,0.0,0.0,-0.342773,-0.944824,0.122559,0.0,0.0,0.0,0.0,0.0,0.0,0.0,0.0,0.0
7.543713501,213,226,0.71393159,-0.66260078,0.03723162,0.22332869,0.0,0.0,0.0,0.0,0.0,0.0,0.0,0.0,0.0,-7.875000,6.937500,-1.250000,0.0,0.0,0.0,0.0,0.0,0.0,0.0,0.0,0.0,-0.334473,-0.941895,0.127930,0.0,0.0,0.0,0.0,0.0,0.0,0.0,0.0,0.0
7.566778441,213,226,0.71290162,-0.66401170,0.03765927,0.22235450,0.0,0.0,0.0,0.0,0.0,0.0,0.0,0.0,0.0,-9.625000,7.625000,-0.312500,0.0,0.0,0.0,0.0,0.0,0.0,0.0,0.0,0.0,-0.342773,-0.960449,0.133301,0.0,0.0,0.0,0.0,0.0,0.0,0.0,0.0,0.0
7.587295705,214,227,0.71230051,-0.66499692,0.03845324,0.22119769,0.0,0.0,0.0,0.0,0.0,0.0,0.0,0.0,0.0,-6.750000,9.812500,0.187500,0.0,0.0,0.0,0.0,0.0,0.0,0.0,0.0,0.0,-0.344727,-0.977051,0.141602,0.0,0.0,0.0,0.0,0.0,0.0,0.0,0.0,0.0
7.609423801,215,228,0.71162665,-0.66584914,0.03967384,0.22058656,0.0,0.0,0.0,0.0,0.0,0.0,0.0,0.0,0.0,-5.937500,8.875000,1.812500,0.0,0.0,0.0,0.0,0.0,0.0,0.0,0.0,0.0,-0.388672,-0.980957,0.141602,0.0,0.0,0.0,0.0,0.0,0.0,0.0,0.0,0.0
7.627592345,215,228,0.71118441,-0.66620132,0.04101578,0.22070398,0.0,0.0,0.0,0.0,0.0,0.0,0.0,0.0,0.0,-3.812500,6.312500,3.437500,0.0,0.0,0.0,0.0,0.0,0.0,0.0,0.0,0.0,-0.407227,-0.975098,0.148438,0.0,0.0,0.0,0.0,0.0,0.0,0.0,0.0,0.0
7.654870364,216,229,0.71112310,-0.66620107,0.04174819,0.22076494,0.0,0.0,0.0,0.0,0.0,0.0,0.0,0.0,0.0,-0.062500,2.625000,1.312500,0.0,0.0,0.0,0.0,0.0,0.0,0.0,0.0,0.0,-0.391602,-0.954590,0.124512,0.0,0.0,0.0,0.0,0.0,0.0,0.0,0.0,0.0
7.663526962,216,229,0.71155783,-0.66565875,0.04168760,0.22101140,0.0,0.0,0.0,0.0,0.0,0.0,0.0,0.0,0.0,2.375000,-1.687500,-0.250000,0.0,0.0,0.0,0.0,0.0,0.0,0.0,0.0,0.0,-0.370605,-0.950684,0.127441,0.0,0.0,0.0,0.0,0.0,0.0,0.0,0.0,0.0
7.687328103,217,230,0.71175017,-0.66530116,0.04150503,0.22150256,0.0,0.0,0.0,0.0,0.0,0.0,0.0,0.0,0.0,2.312500,-3.125000,1.562500,0.0,0.0,0.0,0.0,0.0,0.0,0.0,0.0,0.0,-0.354980,-0.955078,0.109375,0.0,0.0,0.0,0.0,0.0,0.0,0.0,0.0,0.0
7.706892436,218,231,0.71214391,-0.66484261,0.04150307,0.22161420,0.0,0.0,0.0,0.0,0.0,0.0,0.0,0.0,0.0,4.062500,-1.437500,1.312500,0.0,0.0,0.0,0.0,0.0,0.0,0.0,0.0,0.0,-0.345703,-0.951660,0.104980,0.0,0.0,0.0,0.0,0.0,0.0,0.0,0.0,0.0
7.724641235,218,231,0.71239361,-0.66460367,0.04168650,0.22149387,0.0,0.0,0.0,0.0,0.0,0.0,0.0,0.0,0.0,1.875000,1.187500,0.562500,0.0,0.0,0.0,0.0,0.0,0.0,0.0,0.0,0.0,-0.339844,-0.918945,0.114746,0.0,0.0,0.0,0.0,0.0,0.0,0.0,0.0,0.0
7.746212618,219,232,0.71185540,-0.66528542,0.04193129,0.22113111,0.0,0.0,0.0,0.0,0.0,0.0,0.0,0.0,0.0,-4.500000,3.250000,0.687500,0.0,0.0,0.0,0.0,0.0,0.0,0.0,0.0,0.0,-0.346680,-0.940430,0.112305,0.0,0.0,0.0,0.0,0.0,0.0,0.0,0.0,0.0
7.767001708,219,232,0.71122550,-0.66593851,0.04260151,0.22106400,0.0,0.0,0.0,0.0,0.0,0.0,0.0,0.0,0.0,-4.062500,3.937500,1.250000,0.0,0.0,0.0,0.0,0.0,0.0,0.0,0.0,0.0,-0.389648,-0.953125,0.112305,0.0,0.0,0.0,0.0,0.0,0.0,0.0,0.0,0.0
7.783870164,220,233,0.71071114,-0.66645954,0.04266464,0.22113590,0.0,0.0,0.0,0.0,0.0,0.0,0.0,0.0,0.0,-4.500000,1.000000,2.000000,0.0,0.0,0.0,0.0,0.0,0.0,0.0,0.0,0.0,-0.351562,-0.953125,0.119141,0.0,0.0,0.0,0.0,0.0,0.0,0.0,0.0,0.0
7.808780299,221,234,0.71051427,-0.66675182,0.04266382,0.22088748,0.0,0.0,0.0,0.0,0.0,0.0,0.0,0.0,0.0,-2.375000,1.750000,0.062500,0.0,0.0,0.0,0.0,0.0,0.0,0.0,0.0,0.0,-0.347656,-0.951172,0.116699,0.0,0.0,0.0,0.0,0.0,0.0,0.0,0.0,0.0
7.826392805,221,234,0.71057341,-0.66668900,0.04266370,0.22088689,0.0,0.0,0.0,0.0,0.0,0.0,0.0,0.0,0.0,-0.937500,0.812500,-0.312500,0.0,0.0,0.0,0.0,0.0,0.0,0.0,0.0,0.0,-0.359863,-0.938965,0.125488,0.0,0.0,0.0,0.0,0.0,0.0,0.0,0.0,0.0
7.843464784,222,235,0.71022254,-0.66694755,0.04254255,0.22125788,0.0,0.0,0.0,0.0,0.0,0.0,0.0,0.0,0.0,-3.000000,-1.437500,0.250000,0.0,0.0,0.0,0.0,0.0,0.0,0.0,0.0,0.0,-0.394043,-0.979004,0.120605,0.0,0.0,0.0,0.0,0.0,0.0,0.0,0.0,0.0
7.865724720,222,235,0.71046721,-0.66645975,0.04260362,0.22192945,0.0,0.0,0.0,0.0,0.0,0.0,0.0,0.0,0.0,1.812500,-3.062500,1.500000,0.0,0.0,0.0,0.0,0.0,0.0,0.0,0.0,0.0,-0.382324,-0.951172,0.121582,0.0,0.0,0.0,0.0,0.0,0.0,0.0,0.0,0.0
7.886723889,223,236,0.71038511,-0.66637895,0.04272442,0.22241115,0.0,0.0,0.0,0.0,0.0,0.0,0.0,0.0,0.0,-0.562500,-1.125000,2.562500,0.0,0.0,0.0,0.0,0.0,0.0,0.0,0.0,0.0,-0.360840,-0.936523,0.117188,0.0,0.0,0.0,0.0,0.0,0.0,0.0,0.0,0.0
7.903242354,224,237,0.70985417,-0.66700656,0.04235931,0.22229483,0.0,0.0,0.0,0.0,0.0,0.0,0.0,0.0,0.0,-5.937500,0.500000,-0.500000,0.0,0.0,0.0,0.0,0.0,0.0,0.0,0.0,0.0,-0.354004,-0.952148,0.124023,0.0,0.0,0.0,0.0,0.0,0.0,0.0,0.0,0.0
7.925908770,224,237,0.70959998,-0.66724126,0.04229768,0.22241375,0.0,0.0,0.0,0.0,0.0,0.0,0.0,0.0,0.0,-1.687500,-0.750000,0.437500,0.0,0.0,0.0,0.0,0.0,0.0,0.0,0.0,0.0,-0.382812,-0.986328,0.107910,0.0,0.0,0.0,0.0,0.0,0.0,0.0,0.0,0.0
7.947179682,225,238,0.70959458,-0.66693101,0.04278564,0.22326655,0.0,0.0,0.0,0.0,0.0,0.0,0.0,0.0,0.0,1.937500,-2.375000,2.750000,0.0,0.0,0.0,0.0,0.0,0.0,0.0,0.0,0.0,-0.408203,-0.956055,0.102539,0.0,0.0,0.0,0.0,0.0,0.0,0.0,0.0,0.0
7.963425448,225,238,0.70940846,-0.66686715,0.04272442,0.22405906,0.0,0.0,0.0,0.0,0.0,0.0,0.0,0.0,0.0,-1.000000,-2.937500,2.312500,0.0,0.0,0.0,0.0,0.0,0.0,0.0,0.0,0.0,-0.378906,-0.945801,0.116699,0.0,0.0,0.0,0.0,0.0,0.0,0.0,0.0,0.0
7.986281356,226,239,0.70960463,-0.66651321,0.04272521,0.22449044,0.0,0.0,0.0,0.0,0.0,0.0,0.0,0.0,0.0,1.312500,-2.062500,2.750000,0.0,0.0,0.0,0.0,0.0,0.0,0.0,0.0,0.0,-0.353516,-0.948730,0.122559,0.0,0.0,0.0,0.0,0.0,0.0,0.0,0.0,0.0
8.007069676,227,240,0.70977170,-0.66619298,0.04272424,0.22491261,0.0,0.0,0.0,0.0,0.0,0.0,0.0,0.0,0.0,1.187500,-1.875000,2.312500,0.0,0.0,0.0,0.0,0.0,0.0,0.0,0.0,0.0,-0.349121,-0.926270,0.113281,0.0,0.0,0.0,0.0,0.0,0.0,0.0,0.0,0.0
8.023902432,227,240,0.70971348,-0.66619562,0.04235820,0.22515764,0.0,0.0,0.0,0.0,0.0,0.0,0.0,0.0,0.0,-0.875000,-1.812500,1.000000,0.0,0.0,0.0,0.0,0.0,0.0,0.0,0.0,0.0,-0.345703,-0.943848,0.112305,0.0,0.0,0.0,0.0,0.0,0.0,0.0,0.0,0.0
8.046988602,228,241,0.70983088,-0.66613020,0.04174758,0.22509512,0.0,0.0,0.0,0.0,0.0,0.0,0.0,0.0,0.0,0.187500,-2.375000,0.062500,0.0,0.0,0.0,0.0,0.0,0.0,0.0,0.0,0.0,-0.315918,-0.930176,0.104980,0.0,0.0,0.0,0.0,0.0,0.0,0.0,0.0,0.0
8.074108972,228,241,0.70992167,-0.66615812,0.04101688,0.22486041,0.0,0.0,0.0,0.0,0.0,0.0,0.0,0.0,0.0,-0.875000,-1.625000,-1.125000,0.0,0.0,0.0,0.0,0.0,0.0,0.0,0.0,0.0,-0.320312,-0.940918,0.112793,0.0,0.0,0.0,0.0,0.0,0.0,0.0,0.0,0.0
8.084638332,229,242,0.70940156,-0.66679962,0.04064884,0.22466722,0.0,0.0,0.0,0.0,0.0,0.0,0.0,0.0,0.0,-4.687500,-0.062500,-0.437500,0.0,0.0,0.0,0.0,0.0,0.0,0.0,0.0,0.0,-0.347656,-0.941406,0.105469,0.0,0.0,0.0,0.0,0.0,0.0,0.0,0.0,0.0
8.106559000,230,243,0.70882437,-0.66744118,0.04046763,0.22461669,0.0,0.0,0.0,0.0,0.0,0.0,0.0,0.0,0.0,-4.250000,0.062500,-0.625000,0.0,0.0,0.0,0.0,0.0,0.0,0.0,0.0,0.0,-0.377441,-0.970703,0.098145,0.0,0.0,0.0,0.0,0.0,0.0,0.0,0.0,0.0
8.126420803,230,243,0.70852156,-0.66768757,0.04034569,0.22486160,0.0,0.0,0.0,0.0,0.0,0.0,0.0,0.0,0.0,-2.062500,-1.250000,-0.187500,0.0,0.0,0.0,0.0,0.0,0.0,0.0,0.0,0.0,-0.386230,-0.966309,0.103027,0.0,0.0,0.0,0.0,0.0,0.0,0.0,0.0,0.0
8.156904071,231,244,0.70837872,-0.66772903,0.04016140,0.22522122,0.0,0.0,0.0,0.0,0.0,0.0,0.0,0.0,0.0,-1.000000,-2.375000,0.187500,0.0,0.0,0.0,0.0,0.0,0.0,0.0,0.0,0.0,-0.376953,-0.945312,0.103027,0.0,0.0,0.0,0.0,0.0,0.0,0.0,0.0,0.0
8.166630355,231,244,0.70815330,-0.66792980,0.03973520,0.22541029,0.0,0.0,0.0,0.0,0.0,0.0,0.0,0.0,0.0,-3.375000,-1.437500,-1.062500,0.0,0.0,0.0,0.0,0.0,0.0,0.0,0.0,0.0,-0.364746,-0.933105,0.123047,0.0,0.0,0.0,0.0,0.0,0.0,0.0,0.0,0.0
8.186659454,232,245,0.70759442,-0.66853116,0.03924637,0.22546828,0.0,0.0,0.0,0.0,0.0,0.0,0.0,0.0,0.0,-5.937500,-1.125000,-0.625000,0.0,0.0,0.0,0.0,0.0,0.0,0.0,0.0,0.0,-0.355469,-0.940430,0.114258,0.0,0.0,0.0,0.0,0.0,0.0,0.0,0.0,0.0
8.209054637,233,246,0.70702484,-0.66906131,0.03875697,0.22576700,0.0,0.0,0.0,0.0,0.0,0.0,0.0,0.0,0.0,-5.437500,-2.250000,0.187500,0.0,0.0,0.0,0.0,0.0,0.0,0.0,0.0,0.0,-0.372559,-0.973145,0.112305,0.0,0.0,0.0,0.0,0.0,0.0,0.0,0.0,0.0
8.225618203,233,246,0.70672767,-0.66931303,0.03839120,0.22601369,0.0,0.0,0.0,0.0,0.0,0.0,0.0,0.0,0.0,-2.500000,-2.125000,0.750000,0.0,0.0,0.0,0.0,0.0,0.0,0.0,0.0,0.0,-0.355469,-0.958984,0.102539,0.0,0.0,0.0,0.0,0.0,0.0,0.0,0.0,0.0
8.247958269,234,247,0.70672767,-0.66931303,0.03839120,0.22601369,0.0,0.0,0.0,0.0,0.0,0.0,0.0,0.0,0.0,-0.750000,-0.125000,0.375000,0.0,0.0,0.0,0.0,0.0,0.0,0.0,0.0,0.0,-0.355957,-0.945801,0.104980,0.0,0.0,0.0,0.0,0.0,0.0,0.0,0.0,0.0
8.271759811,235,248,0.70627231,-0.66971047,0.03869818,0.22620734,0.0,0.0,0.0,0.0,0.0,0.0,0.0,0.0,0.0,-3.750000,1.437500,2.312500,0.0,0.0,0.0,0.0,0.0,0.0,0.0,0.0,0.0,-0.375000,-0.959961,0.112305,0.0,0.0,0.0,0.0,0.0,0.0,0.0,0.0,0.0
8.286068890,235,248,0.70563138,-0.67029182,0.03930686,0.22638066,0.0,0.0,0.0,0.0,0.0,0.0,0.0,0.0,0.0,-4.437500,2.625000,2.750000,0.0,0.0,0.0,0.0,0.0,0.0,0.0,0.0,0.0,-0.382324,-0.956055,0.107910,0.0,0.0,0.0,0.0,0.0,0.0,0.0,0.0,0.0
8.308501320,236,249,0.70475432,-0.67088070,0.04009904,0.22722788,0.0,0.0,0.0,0.0,0.0,0.0,0.0,0.0,0.0,-5.000000,1.062500,6.187500,0.0,0.0,0.0,0.0,0.0,0.0,0.0,0.0,0.0,-0.406738,-0.995117,0.103027,0.0,0.0,0.0,0.0,0.0,0.0,0.0,0.0,0.0
8.329062900,236,249,0.70388233,-0.67104425,0.04278716,0.22895097,0.0,0.0,0.0,0.0,0.0,0.0,0.0,0.0,0.0,-1.125000,4.187500,14.000000,0.0,0.0,0.0,0.0,0.0,0.0,0.0,0.0,0.0,-0.439941,-0.942383,0.102051,0.0,0.0,0.0,0.0,0.0,0.0,0.0,0.0,0.0
8.346822541,237,250,0.70326597,-0.67109958,0.04449582,0.23035287,0.0,0.0,0.0,0.0,0.0,0.0,0.0,0.0,0.0,-2.562500,2.437500,13.062500,0.0,0.0,0.0,0.0,0.0,0.0,0.0,0.0,0.0,-0.375977,-0.939453,0.125000,0.0,0.0,0.0,0.0,0.0,0.0,0.0,0.0,0.0
8.369427963,237,250,0.70278079,-0.67128566,0.04522847,0.23114737,0.0,0.0,0.0,0.0,0.0,0.0,0.0,0.0,0.0,-3.125000,0.812500,7.937500,0.0,0.0,0.0,0.0,0.0,0.0,0.0,0.0,0.0,-0.363281,-0.937500,0.113770,0.0,0.0,0.0,0.0,0.0,0.0,0.0,0.0,0.0
8.388973159,238,251,0.70330536,-0.67083478,0.04473859,0.23095613,0.0,0.0,0.0,0.0,0.0,0.0,0.0,0.0,0.0,2.500000,-1.250000,0.875000,0.0,0.0,0.0,0.0,0.0,0.0,0.0,0.0,0.0,-0.327148,-0.962891,0.112305,0.0,0.0,0.0,0.0,0.0,0.0,0.0,0.0,0.0
8.405983295,239,252,0.70404902,-0.67029617,0.04455620,0.23028842,0.0,0.0,0.0,0.0,0.0,0.0,0.0,0.0,0.0,3.437500,1.750000,-0.125000,0.0,0.0,0.0,0.0,0.0,0.0,0.0,0.0,0.0,-0.307617,-0.924805,0.115234,0.0,0.0,0.0,0.0,0.0,0.0,0.0,0.0,0.0
8.428137178,239,252,0.70417677,-0.67036261,0.04467863,0.22967992,0.0,0.0,0.0,0.0,0.0,0.0,0.0,0.0,0.0,0.062500,3.375000,0.062500,0.0,0.0,0.0,0.0,0.0,0.0,0.0,0.0,0.0,-0.329102,-0.908691,0.106445,0.0,0.0,0.0,0.0,0.0,0.0,0.0,0.0,0.0
8.449479370,240,253,0.70386617,-0.67102885,0.04364068,0.22888468,0.0,0.0,0.0,0.0,0.0,0.0,0.0,0.0,0.0,-3.562500,-0.562500,-6.375000,0.0,0.0,0.0,0.0,0.0,0.0,0.0,0.0,0.0,-0.354980,-0.910645,0.070801,0.0,0.0,0.0,0.0,0.0,0.0,0.0,0.0,0.0
8.465962289,240,253,0.70263642,-0.67242403,0.04229735,0.22882070,0.0,0.0,0.0,0.0,0.0,0.0,0.0,0.0,0.0,-10.625000,-3.875000,-5.250000,0.0,0.0,0.0,0.0,0.0,0.0,0.0,0.0,0.0,-0.384766,-0.934082,0.072266,0.0,0.0,0.0,0.0,0.0,0.0,0.0,0.0,0.0
8.487860551,241,254,0.70116370,-0.67369820,0.04217480,0.22961158,0.0,0.0,0.0,0.0,0.0,0.0,0.0,0.0,0.0,-10.312500,-2.312500,1.625000,0.0,0.0,0.0,0.0,0.0,0.0,0.0,0.0,0.0,-0.454102,-1.023438,0.082031,0.0,0.0,0.0,0.0,0.0,0.0,0.0,0.0,0.0
8.509534809,242,255,0.70098292,-0.67339526,0.04333460,0.23083303,0.0,0.0,0.0,0.0,0.0,0.0,0.0,0.0,0.0,2.000000,-0.750000,8.625000,0.0,0.0,0.0,0.0,0.0,0.0,0.0,0.0,0.0,-0.418945,-1.009766,0.089844,0.0,0.0,0.0,0.0,0.0,0.0,0.0,0.0,0.0
8.525907978,242,255,0.70220827,-0.67175178,0.04473869,0.23162802,0.0,0.0,0.0,0.0,0.0,0.0,0.0,0.0,0.0,12.000000,0.125000,3.375000,0.0,0.0,0.0,0.0,0.0,0.0,0.0,0.0,0.0,-0.422852,-0.886719,0.108398,0.0,0.0,0.0,0.0,0.0,0.0,0.0,0.0,0.0
8.549216229,243,256,0.70235088,-0.67152727,0.04425171,0.23193998,0.0,0.0,0.0,0.0,0.0,0.0,0.0,0.0,0.0,-1.375000,-2.625000,0.562500,0.0,0.0,0.0,0.0,0.0,0.0,0.0,0.0,0.0,-0.339844,-0.894043,0.123047,0.0,0.0,0.0,0.0,0.0,0.0,0.0,0.0,0.0
8.570886884,243,256,0.70222600,-0.67195185,0.04296976,0.23132869,0.0,0.0,0.0,0.0,0.0,0.0,0.0,0.0,0.0,-4.562500,-1.312500,-5.625000,0.0,0.0,0.0,0.0,0.0,0.0,0.0,0.0,0.0,-0.340820,-0.914551,0.104492,0.0,0.0,0.0,0.0,0.0,0.0,0.0,0.0,0.0
8.585871911,244,257,0.70191811,-0.67268169,0.04113850,0.23047328,0.0,0.0,0.0,0.0,0.0,0.0,0.0,0.0,0.0,-7.000000,-2.812500,-6.250000,0.0,0.0,0.0,0.0,0.0,0.0,0.0,0.0,0.0,-0.308105,-0.931152,0.100586,0.0,0.0,0.0,0.0,0.0,0.0,0.0,0.0,0.0
8.609905340,245,258,0.70195449,-0.67332944,0.03875673,0.22887830,0.0,0.0,0.0,0.0,0.0,0.0,0.0,0.0,0.0,-6.125000,-1.625000,-10.062500,0.0,0.0,0.0,0.0,0.0,0.0,0.0,0.0,0.0,-0.276367,-0.935547,0.102051,0.0,0.0,0.0,0.0,0.0,0.0,0.0,0.0,0.0
8.632294918,245,258,0.70275376,-0.67351813,0.03631566,0.22625571,0.0,0.0,0.0,0.0,0.0,0.0,0.0,0.0,0.0,-0.687500,0.937500,-16.625000,0.0,0.0,0.0,0.0,0.0,0.0,0.0,0.0,0.0,-0.308594,-0.981445,0.102539,0.0,0.0,0.0,0.0,0.0,0.0,0.0,0.0,0.0
8.645789759,246,259,0.70331631,-0.67353081,0.03576702,0.22455096,0.0,0.0,0.0,0.0,0.0,0.0,0.0,0.0,0.0,2.187500,4.125000,-10.000000,0.0,0.0,0.0,0.0,0.0,0.0,0.0,0.0,0.0,-0.374512,-0.979492,0.089355,0.0,0.0,0.0,0.0,0.0,0.0,0.0,0.0,0.0
8.668140024,246,259,0.70367551,-0.67376823,0.03607184,0.22265663,0.0,0.0,0.0,0.0,0.0,0.0,0.0,0.0,0.0,0.250000,9.312500,-5.937500,0.0,0.0,0.0,0.0,0.0,0.0,0.0,0.0,0.0,-0.336914,-0.937012,0.102051,0.0,0.0,0.0,0.0,0.0,0.0,0.0,0.0,0.0
8.688937402,247,260,0.70370899,-0.67477690,0.03595148,0.21949324,0.0,0.0,0.0,0.0,0.0,0.0,0.0,0.0,0.0,-5.312500,13.500000,-12.062500,0.0,0.0,0.0,0.0,0.0,0.0,0.0,0.0,0.0,-0.313965,-0.903809,0.110352,0.0,0.0,0.0,0.0,0.0,0.0,0.0,0.0,0.0
8.706869231,247,260,0.70295757,-0.67658979,0.03472978,0.21649653,0.0,0.0,0.0,0.0,0.0,0.0,0.0,0.0,0.0,-10.937500,9.187500,-15.687500,0.0,0.0,0.0,0.0,0.0,0.0,0.0,0.0,0.0,-0.348145,-0.969238,0.080566,0.0,0.0,0.0,0.0,0.0,0.0,0.0,0.0,0.0
8.728913248,248,261,0.70313371,-0.67755966,0.03259318,0.21319844,0.0,0.0,0.0,0.0,0.0,0.0,0.0,0.0,0.0,-3.687500,4.937500,-21.125000,0.0,0.0,0.0,0.0,0.0,0.0,0.0,0.0,0.0,-0.337891,-0.987793,0.062012,0.0,0.0,0.0,0.0,0.0,0.0,0.0,0.0,0.0
8.749070284,249,262,0.70410423,-0.67755384,0.03033459,0.21032795,0.0,0.0,0.0,0.0,0.0,0.0,0.0,0.0,0.0,3.625000,1.125000,-19.937500,0.0,0.0,0.0,0.0,0.0,0.0,0.0,0.0,0.0,-0.328125,-1.013184,0.051270,0.0,0.0,0.0,0.0,0.0,0.0,0.0,0.0,0.0
8.774793068,250,263,0.70496935,-0.67719783,0.02996883,0.20862210,0.0,0.0,0.0,0.0,0.0,0.0,0.0,0.0,0.0,4.500000,4.562500,-10.562500,0.0,0.0,0.0,0.0,0.0,0.0,0.0,0.0,0.0,-0.351074,-0.961426,0.085449,0.0,0.0,0.0,0.0,0.0,0.0,0.0,0.0,0.0
8.796015486,250,263,0.70452188,-0.67784978,0.03045624,0.20794473,0.0,0.0,0.0,0.0,0.0,0.0,0.0,0.0,0.0,-3.250000,4.687500,-6.500000,0.0,0.0,0.0,0.0,0.0,0.0,0.0,0.0,0.0,-0.413574,-0.932129,0.074219,0.0,0.0,0.0,0.0,0.0,0.0,0.0,0.0,0.0
8.810328072,251,264,0.70333262,-0.67934496,0.02996931,0.20716054,0.0,0.0,0.0,0.0,0.0,0.0,0.0,0.0,0.0,-12.375000,2.812500,-8.750000,0.0,0.0,0.0,0.0,0.0,0.0,0.0,0.0,0.0,-0.391602,-0.933594,0.090820,0.0,0.0,0.0,0.0,0.0,0.0,0.0,0.0,0.0
8.825632157,251,264,0.70233795,-0.68085338,0.02874782,0.20575139,0.0,0.0,0.0,0.0,0.0,0.0,0.0,0.0,0.0,-11.875000,3.000000,-10.375000,0.0,0.0,0.0,0.0,0.0,0.0,0.0,0.0,0.0,-0.345703,-0.978516,0.085449,0.0,0.0,0.0,0.0,0.0,0.0,0.0,0.0,0.0
8.848760568,252,265,0.70192399,-0.68129353,0.02795489,0.20581632,0.0,0.0,0.0,0.0,0.0,0.0,0.0,0.0,0.0,-4.750000,-3.375000,-5.812500,0.0,0.0,0.0,0.0,0.0,0.0,0.0,0.0,0.0,-0.395508,-1.018066,0.078613,0.0,0.0,0.0,0.0,0.0,0.0,0.0,0.0,0.0
8.868984317,252,265,0.70283300,-0.68043268,0.02697804,0.20569233,0.0,0.0,0.0,0.0,0.0,0.0,0.0,0.0,0.0,5.625000,-4.625000,-7.625000,0.0,0.0,0.0,0.0,0.0,0.0,0.0,0.0,0.0,-0.356445,-0.948242,0.077148,0.0,0.0,0.0,0.0,0.0,0.0,0.0,0.0,0.0
8.886466295,253,266,0.70324185,-0.68023177,0.02606182,0.20507660,0.0,0.0,0.0,0.0,0.0,0.0,0.0,0.0,0.0,0.375000,-1.437500,-7.625000,0.0,0.0,0.0,0.0,0.0,0.0,0.0,0.0,0.0,-0.321289,-0.915527,0.087891,0.0,0.0,0.0,0.0,0.0,0.0,0.0,0.0,0.0
8.910408905,254,267,0.70233531,-0.68133910,0.02539076,0.20459094,0.0,0.0,0.0,0.0,0.0,0.0,0.0,0.0,0.0,-10.312500,1.062500,-5.250000,0.0,0.0,0.0,0.0,0.0,0.0,0.0,0.0,0.0,-0.340820,-0.955566,0.091797,0.0,0.0,0.0,0.0,0.0,0.0,0.0,0.0,0.0
8.928910959,254,267,0.70162236,-0.68221254,0.02453695,0.20423040,0.0,0.0,0.0,0.0,0.0,0.0,0.0,0.0,0.0,-8.125000,-0.625000,-5.000000,0.0,0.0,0.0,0.0,0.0,0.0,0.0,0.0,0.0,-0.340332,-0.992188,0.086426,0.0,0.0,0.0,0.0,0.0,0.0,0.0,0.0,0.0
8.946293492,255,268,0.70195662,-0.68218148,0.02349824,0.20330558,0.0,0.0,0.0,0.0,0.0,0.0,0.0,0.0,0.0,-0.437500,-0.187500,-6.062500,0.0,0.0,0.0,0.0,0.0,0.0,0.0,0.0,0.0,-0.289062,-0.977051,0.079590,0.0,0.0,0.0,0.0,0.0,0.0,0.0,0.0,0.0
8.968664569,255,268,0.70253073,-0.68226659,0.02215627,0.20117648,0.0,0.0,0.0,0.0,0.0,0.0,0.0,0.0,0.0,-0.562500,3.625000,-9.312500,0.0,0.0,0.0,0.0,0.0,0.0,0.0,0.0,0.0,-0.228516,-0.951660,0.087402,0.0,0.0,0.0,0.0,0.0,0.0,0.0,0.0,0.0
8.989001179,256,269,0.70174282,-0.68367586,0.02130193,0.19922489,0.0,0.0,0.0,0.0,0.0,0.0,0.0,0.0,0.0,-8.750000,5.625000,-7.375000,0.0,0.0,0.0,0.0,0.0,0.0,0.0,0.0,0.0,-0.269043,-0.992188,0.050781,0.0,0.0,0.0,0.0,0.0,0.0,0.0,0.0,0.0
9.006229210,256,269,0.70082002,-0.68495055,0.02099652,0.19812418,0.0,0.0,0.0,0.0,0.0,0.0,0.0,0.0,0.0,-7.937500,4.437500,-4.375000,0.0,0.0,0.0,0.0,0.0,0.0,0.0,0.0,0.0,-0.303223,-0.988281,0.049316,0.0,0.0,0.0,0.0,0.0,0.0,0.0,0.0,0.0
9.028137630,257,270,0.70039564,-0.68580788,0.02093557,0.19666011,0.0,0.0,0.0,0.0,0.0,0.0,0.0,0.0,0.0,-3.812500,6.062500,-5.000000,0.0,0.0,0.0,0.0,0.0,0.0,0.0,0.0,0.0,-0.297363,-0.977539,0.040527,0.0,0.0,0.0,0.0,0.0,0.0,0.0,0.0,0.0
9.051393694,258,271,0.69976177,-0.68682244,0.02093487,0.19537178,0.0,0.0,0.0,0.0,0.0,0.0,0.0,0.0,0.0,-6.625000,6.375000,-5.625000,0.0,0.0,0.0,0.0,0.0,0.0,0.0,0.0,0.0,-0.308594,-0.938965,0.060547,0.0,0.0,0.0,0.0,0.0,0.0,0.0,0.0,0.0
9.071616366,258,271,0.69867656,-0.68836151,0.02020284,0.19391067,0.0,0.0,0.0,0.0,0.0,0.0,0.0,0.0,0.0,-11.375000,4.812500,-7.250000,0.0,0.0,0.0,0.0,0.0,0.0,0.0,0.0,0.0,-0.297363,-0.977539,0.056641,0.0,0.0,0.0,0.0,0.0,0.0,0.0,0.0,0.0
9.089369233,259,272,0.69776820,-0.68946725,0.01971476,0.19330230,0.0,0.0,0.0,0.0,0.0,0.0,0.0,0.0,0.0,-8.250000,1.625000,-4.687500,0.0,0.0,0.0,0.0,0.0,0.0,0.0,0.0,0.0,-0.329102,-1.016602,0.044922,0.0,0.0,0.0,0.0,0.0,0.0,0.0,0.0,0.0
9.109112216,260,273,0.69760890,-0.68973563,0.01965267,0.19292579,0.0,0.0,0.0,0.0,0.0,0.0,0.0,0.0,0.0,-2.250000,1.500000,-2.687500,0.0,0.0,0.0,0.0,0.0,0.0,0.0,0.0,0.0,-0.312988,-0.969727,0.055664,0.0,0.0,0.0,0.0,0.0,0.0,0.0,0.0,0.0
9.125944120,260,273,0.69738046,-0.69023942,0.01959208,0.19195358,0.0,0.0,0.0,0.0,0.0,0.0,0.0,0.0,0.0,-4.000000,4.562500,-4.000000,0.0,0.0,0.0,0.0,0.0,0.0,0.0,0.0,0.0,-0.295410,-0.956543,0.064453,0.0,0.0,0.0,0.0,0.0,0.0,0.0,0.0,0.0
9.148955322,261,274,0.69677809,-0.69116285,0.01977541,0.19079610,0.0,0.0,0.0,0.0,0.0,0.0,0.0,0.0,0.0,-8.000000,7.000000,-3.687500,0.0,0.0,0.0,0.0,0.0,0.0,0.0,0.0,0.0,-0.291992,-0.954590,0.076172,0.0,0.0,0.0,0.0,0.0,0.0,0.0,0.0,0.0
9.177027486,261,274,0.69568367,-0.69244878,0.01977553,0.19012587,0.0,0.0,0.0,0.0,0.0,0.0,0.0,0.0,0.0,-10.812500,4.500000,-1.687500,0.0,0.0,0.0,0.0,0.0,0.0,0.0,0.0,0.0,-0.318359,-1.027344,0.064453,0.0,0.0,0.0,0.0,0.0,0.0,0.0,0.0,0.0
9.185606452,261,274,0.69542488,-0.69280040,0.01953098,0.18981669,0.0,0.0,0.0,0.0,0.0,0.0,0.0,0.0,0.0,-4.500000,1.312500,-2.187500,0.0,0.0,0.0,0.0,0.0,0.0,0.0,0.0,0.0,-0.297852,-0.979980,0.063477,0.0,0.0,0.0,0.0,0.0,0.0,0.0,0.0,0.0
9.209294521,262,275,0.69506328,-0.69329328,0.01904283,0.18939071,0.0,0.0,0.0,0.0,0.0,0.0,0.0,0.0,0.0,-4.687500,0.500000,-2.500000,0.0,0.0,0.0,0.0,0.0,0.0,0.0,0.0,0.0,-0.284180,-0.974121,0.053223,0.0,0.0,0.0,0.0,0.0,0.0,0.0,0.0,0.0
9.231683593,263,276,0.69474799,-0.69383248,0.01818808,0.18865554,0.0,0.0,0.0,0.0,0.0,0.0,0.0,0.0,0.0,-5.687500,0.312500,-5.437500,0.0,0.0,0.0,0.0,0.0,0.0,0.0,0.0,0.0,-0.279785,-0.963867,0.054688,0.0,0.0,0.0,0.0,0.0,0.0,0.0,0.0,0.0
9.246121157,263,276,0.69434599,-0.69465117,0.01733424,0.18719753,0.0,0.0,0.0,0.0,0.0,0.0,0.0,0.0,0.0,-6.437500,3.812500,-7.000000,0.0,0.0,0.0,0.0,0.0,0.0,0.0,0.0,0.0,-0.265625,-1.000488,0.048828,0.0,0.0,0.0,0.0,0.0,0.0,0.0,0.0,0.0
9.269662445,264,277,0.69385907,-0.69532394,0.01709012,0.18652651,0.0,0.0,0.0,0.0,0.0,0.0,0.0,0.0,0.0,-4.812500,2.500000,-4.375000,0.0,0.0,0.0,0.0,0.0,0.0,0.0,0.0,0.0,-0.319336,-1.011230,0.036621,0.0,0.0,0.0,0.0,0.0,0.0,0.0,0.0,0.0
9.291533270,265,278,0.69342588,-0.69598937,0.01690687,0.18567041,0.0,0.0,0.0,0.0,0.0,0.0,0.0,0.0,0.0,-5.062500,3.625000,-3.625000,0.0,0.0,0.0,0.0,0.0,0.0,0.0,0.0,0.0,-0.276855,-0.947266,0.038574,0.0,0.0,0.0,0.0,0.0,0.0,0.0,0.0,0.0
9.307650396,265,278,0.69255723,-0.69713481,0.01672342,0.18462903,0.0,0.0,0.0,0.0,0.0,0.0,0.0,0.0,0.0,-8.937500,4.687500,-3.562500,0.0,0.0,0.0,0.0,0.0,0.0,0.0,0.0,0.0,-0.272461,-0.956543,0.036621,0.0,0.0,0.0,0.0,0.0,0.0,0.0,0.0,0.0
9.328374208,266,279,0.69165257,-0.69842750,0.01629644,0.18316708,0.0,0.0,0.0,0.0,0.0,0.0,0.0,0.0,0.0,-9.687500,5.812500,-5.437500,0.0,0.0,0.0,0.0,0.0,0.0,0.0,0.0,0.0,-0.260254,-0.966309,0.030762,0.0,0.0,0.0,0.0,0.0,0.0,0.0,0.0,0.0
9.351334700,267,280,0.69084754,-0.69963648,0.01568582,0.18163816,0.0,0.0,0.0,0.0,0.0,0.0,0.0,0.0,0.0,-8.062500,5.125000,-6.625000,0.0,0.0,0.0,0.0,0.0,0.0,0.0,0.0,0.0,-0.279785,-1.028809,0.018555,0.0,0.0,0.0,0.0,0.0,0.0,0.0,0.0,0.0
9.365801230,267,280,0.69063112,-0.69996974,0.01519816,0.18121819,0.0,0.0,0.0,0.0,0.0,0.0,0.0,0.0,0.0,-2.937500,-0.187500,-4.812500,0.0,0.0,0.0,0.0,0.0,0.0,0.0,0.0,0.0,-0.304199,-1.001465,0.020020,0.0,0.0,0.0,0.0,0.0,0.0,0.0,0.0,0.0
9.389363239,268,281,0.69079319,-0.69988740,0.01458735,0.18096853,0.0,0.0,0.0,0.0,0.0,0.0,0.0,0.0,0.0,0.500000,-1.500000,-4.375000,0.0,0.0,0.0,0.0,0.0,0.0,0.0,0.0,0.0,-0.287109,-0.956543,0.020020,0.0,0.0,0.0,0.0,0.0,0.0,0.0,0.0,0.0
9.412164251,269,282,0.69030490,-0.70049773,0.01367182,0.18054128,0.0,0.0,0.0,0.0,0.0,0.0,0.0,0.0,0.0,-6.312500,-1.000000,-4.875000,0.0,0.0,0.0,0.0,0.0,0.0,0.0,0.0,0.0,-0.267090,-0.955078,0.029785,0.0,0.0,0.0,0.0,0.0,0.0,0.0,0.0,0.0
9.425557521,269,282,0.68974740,-0.70128287,0.01281718,0.17968466,0.0,0.0,0.0,0.0,0.0,0.0,0.0,0.0,0.0,-6.625000,1.062500,-6.250000,0.0,0.0,0.0,0.0,0.0,0.0,0.0,0.0,0.0,-0.276367,-0.993652,0.025879,0.0,0.0,0.0,0.0,0.0,0.0,0.0,0.0,0.0
9.449383751,270,283,0.68938481,-0.70177482,0.01220690,0.17919733,0.0,0.0,0.0,0.0,0.0,0.0,0.0,0.0,0.0,-4.875000,0.250000,-4.937500,0.0,0.0,0.0,0.0,0.0,0.0,0.0,0.0,0.0,-0.295898,-1.012207,0.025879,0.0,0.0,0.0,0.0,0.0,0.0,0.0,0.0,0.0
9.470953202,270,283,0.68977377,-0.70149279,0.01171901,0.17883702,0.0,0.0,0.0,0.0,0.0,0.0,0.0,0.0,0.0,1.500000,-0.750000,-5.062500,0.0,0.0,0.0,0.0,0.0,0.0,0.0,0.0,0.0,-0.288086,-0.978516,0.025879,0.0,0.0,0.0,0.0,0.0,0.0,0.0,0.0,0.0
9.486298993,271,284,0.68957296,-0.70177995,0.01104733,0.17852725,0.0,0.0,0.0,0.0,0.0,0.0,0.0,0.0,0.0,-2.750000,-1.062500,-4.750000,0.0,0.0,0.0,0.0,0.0,0.0,0.0,0.0,0.0,-0.275879,-0.945312,0.016602,0.0,0.0,0.0,0.0,0.0,0.0,0.0,0.0,0.0
9.508429931,271,284,0.68926570,-0.70220507,0.01007074,0.17809947,0.0,0.0,0.0,0.0,0.0,0.0,0.0,0.0,0.0,-5.812500,-1.000000,-5.187500,0.0,0.0,0.0,0.0,0.0,0.0,0.0,0.0,0.0,-0.264648,-0.975098,0.041992,0.0,0.0,0.0,0.0,0.0,0.0,0.0,0.0,0.0
9.532040069,272,285,0.68906559,-0.70261498,0.00921602,0.17730164,0.0,0.0,0.0,0.0,0.0,0.0,0.0,0.0,0.0,-4.500000,0.437500,-5.437500,0.0,0.0,0.0,0.0,0.0,0.0,0.0,0.0,0.0,-0.261230,-1.017578,0.030273,0.0,0.0,0.0,0.0,0.0,0.0,0.0,0.0,0.0
9.551801283,273,286,0.68952281,-0.70221828,0.00860607,0.17712625,0.0,0.0,0.0,0.0,0.0,0.0,0.0,0.0,0.0,2.500000,-2.000000,-5.687500,0.0,0.0,0.0,0.0,0.0,0.0,0.0,0.0,0.0,-0.304199,-1.000977,0.016113,0.0,0.0,0.0,0.0,0.0,0.0,0.0,0.0,0.0
9.569478777,273,286,0.68976700,-0.70203523,0.00769053,0.17694315,0.0,0.0,0.0,0.0,0.0,0.0,0.0,0.0,0.0,1.437500,-3.500000,-4.937500,0.0,0.0,0.0,0.0,0.0,0.0,0.0,0.0,0.0,-0.266602,-0.986816,0.006348,0.0,0.0,0.0,0.0,0.0,0.0,0.0,0.0,0.0
9.596885002,274,287,0.68970308,-0.70215435,0.00671392,0.17675930,0.0,0.0,0.0,0.0,0.0,0.0,0.0,0.0,0.0,-3.000000,-2.437500,-4.000000,0.0,0.0,0.0,0.0,0.0,0.0,0.0,0.0,0.0,-0.244141,-0.959473,0.030762,0.0,0.0,0.0,0.0,0.0,0.0,0.0,0.0,0.0
9.611514352,274,287,0.68922184,-0.70277189,0.00585948,0.17621178,0.0,0.0,0.0,0.0,0.0,0.0,0.0,0.0,0.0,-5.687500,-0.562500,-4.375000,0.0,0.0,0.0,0.0,0.0,0.0,0.0,0.0,0.0,-0.251465,-0.997070,0.018555,0.0,0.0,0.0,0.0,0.0,0.0,0.0,0.0,0.0
9.628102684,275,288,0.68898494,-0.70308447,0.00531021,0.17590845,0.0,0.0,0.0,0.0,0.0,0.0,0.0,0.0,0.0,-3.125000,-0.750000,-3.187500,0.0,0.0,0.0,0.0,0.0,0.0,0.0,0.0,0.0,-0.274902,-1.032715,0.019531,0.0,0.0,0.0,0.0,0.0,0.0,0.0,0.0,0.0
9.650969051,276,289,0.68956492,-0.70256522,0.00506584,0.17571760,0.0,0.0,0.0,0.0,0.0,0.0,0.0,0.0,0.0,4.375000,-0.625000,-3.062500,0.0,0.0,0.0,0.0,0.0,0.0,0.0,0.0,0.0,-0.270508,-0.989258,0.008301,0.0,0.0,0.0,0.0,0.0,0.0,0.0,0.0,0.0
9.675226406,276,289,0.68968870,-0.70244489,0.00488275,0.17571803,0.0,0.0,0.0,0.0,0.0,0.0,0.0,0.0,0.0,0.750000,-1.000000,-1.500000,0.0,0.0,0.0,0.0,0.0,0.0,0.0,0.0,0.0,-0.259277,-0.963379,0.011230,0.0,0.0,0.0,0.0,0.0,0.0,0.0,0.0,0.0
9.688330971,277,290,0.68944355,-0.70274903,0.00451654,0.17547364,0.0,0.0,0.0,0.0,0.0,0.0,0.0,0.0,0.0,-3.312500,0.125000,-1.187500,0.0,0.0,0.0,0.0,0.0,0.0,0.0,0.0,0.0,-0.241699,-0.979980,0.023926,0.0,0.0,0.0,0.0,0.0,0.0,0.0,0.0,0.0
9.712371914,278,291,0.68957486,-0.70275845,0.00421142,0.17492667,0.0,0.0,0.0,0.0,0.0,0.0,0.0,0.0,0.0,-0.812500,1.375000,-2.125000,0.0,0.0,0.0,0.0,0.0,0.0,0.0,0.0,0.0,-0.247559,-1.021973,0.028320,0.0,0.0,0.0,0.0,0.0,0.0,0.0,0.0,0.0
9.734252883,278,291,0.69006764,-0.70233578,0.00408938,0.17468367,0.0,0.0,0.0,0.0,0.0,0.0,0.0,0.0,0.0,2.125000,0.125000,-1.500000,0.0,0.0,0.0,0.0,0.0,0.0,0.0,0.0,0.0,-0.250977,-1.000000,0.028809,0.0,0.0,0.0,0.0,0.0,0.0,0.0,0.0,0.0
9.748551213,279,292,0.69049136,-0.70190494,0.00396729,0.17474381,0.0,0.0,0.0,0.0,0.0,0.0,0.0,0.0,0.0,3.437500,-1.250000,-1.187500,0.0,0.0,0.0,0.0,0.0,0.0,0.0,0.0,0.0,-0.263184,-0.988281,0.018066,0.0,0.0,0.0,0.0,0.0,0.0,0.0,0.0,0.0
9.771196331,279,292,0.69053932,-0.70176959,0.00353998,0.17510671,0.0,0.0,0.0,0.0,0.0,0.0,0.0,0.0,0.0,-0.062500,-3.250000,-1.375000,0.0,0.0,0.0,0.0,0.0,0.0,0.0,0.0,0.0,-0.266113,-0.975586,0.017578,0.0,0.0,0.0,0.0,0.0,0.0,0.0,0.0,0.0
9.793588853,280,293,0.69055550,-0.70172499,0.00292970,0.17523288,0.0,0.0,0.0,0.0,0.0,0.0,0.0,0.0,0.0,-0.937500,-2.625000,-0.625000,0.0,0.0,0.0,0.0,0.0,0.0,0.0,0.0,0.0,-0.236328,-0.981934,0.019043,0.0,0.0,0.0,0.0,0.0,0.0,0.0,0.0,0.0
9.808459623,280,293,0.69054858,-0.70171796,0.00268553,0.17529216,0.0,0.0,0.0,0.0,0.0,0.0,0.0,0.0,0.0,-0.750000,-1.312500,-0.312500,0.0,0.0,0.0,0.0,0.0,0.0,0.0,0.0,0.0,-0.254395,-1.019043,0.022461,0.0,0.0,0.0,0.0,0.0,0.0,0.0,0.0,0.0
9.838340006,281,294,0.69114859,-0.70109713,0.00268549,0.17541161,0.0,0.0,0.0,0.0,0.0,0.0,0.0,0.0,0.0,3.687500,-0.625000,0.500000,0.0,0.0,0.0,0.0,0.0,0.0,0.0,0.0,0.0,-0.249023,-0.992188,0.036621,0.0,0.0,0.0,0.0,0.0,0.0,0.0,0.0,0.0
9.852362218,282,295,0.69151722,-0.70073338,0.00268550,0.17541222,0.0,0.0,0.0,0.0,0.0,0.0,0.0,0.0,0.0,2.125000,-0.312500,0.000000,0.0,0.0,0.0,0.0,0.0,0.0,0.0,0.0,0.0,-0.249512,-0.988770,0.031250,0.0,0.0,0.0,0.0,0.0,0.0,0.0,0.0,0.0
9.868839859,282,295,0.69172356,-0.70045174,0.00268559,0.17572330,0.0,0.0,0.0,0.0,0.0,0.0,0.0,0.0,0.0,1.187500,-1.500000,0.250000,0.0,0.0,0.0,0.0,0.0,0.0,0.0,0.0,0.0,-0.264648,-0.978027,0.026367,0.0,0.0,0.0,0.0,0.0,0.0,0.0,0.0,0.0
9.891513662,283,296,0.69167756,-0.70040593,0.00219735,0.17609334,0.0,0.0,0.0,0.0,0.0,0.0,0.0,0.0,0.0,0.125000,-3.750000,-0.437500,0.0,0.0,0.0,0.0,0.0,0.0,0.0,0.0,0.0,-0.255371,-0.994141,0.011230,0.0,0.0,0.0,0.0,0.0,0.0,0.0,0.0,0.0
9.911810908,283,296,0.69176414,-0.70024792,0.00140379,0.17638948,0.0,0.0,0.0,0.0,0.0,0.0,0.0,0.0,0.0,0.187500,-4.312500,-0.375000,0.0,0.0,0.0,0.0,0.0,0.0,0.0,0.0,0.0,-0.232910,-1.003418,0.019043,0.0,0.0,0.0,0.0,0.0,0.0,0.0,0.0,0.0
9.929767113,284,297,0.69216151,-0.69973012,0.00128178,0.17688572,0.0,0.0,0.0,0.0,0.0,0.0,0.0,0.0,0.0,3.625000,-3.375000,0.687500,0.0,0.0,0.0,0.0,0.0,0.0,0.0,0.0,0.0,-0.259766,-0.990723,0.019531,0.0,0.0,0.0,0.0,0.0,0.0,0.0,0.0,0.0
9.950905472,285,298,0.69258252,-0.69911343,0.00073244,0.17767760,0.0,0.0,0.0,0.0,0.0,0.0,0.0,0.0,0.0,3.000000,-5.750000,-0.125000,0.0,0.0,0.0,0.0,0.0,0.0,0.0,0.0,0.0,-0.264648,-0.983887,0.030762,0.0,0.0,0.0,0.0,0.0,0.0,0.0,0.0,0.0
9.973926591,285,298,0.69275671,-0.69867719,-0.00012207,0.17871292,0.0,0.0,0.0,0.0,0.0,0.0,0.0,0.0,0.0,1.500000,-8.000000,0.625000,0.0,0.0,0.0,0.0,0.0,0.0,0.0,0.0,0.0,-0.252930,-0.988770,0.024414,0.0,0.0,0.0,0.0,0.0,0.0,0.0,0.0,0.0
9.996536728,286,299,0.69305102,-0.69805588,-0.00109863,0.17999185,0.0,0.0,0.0,0.0,0.0,0.0,0.0,0.0,0.0,2.562500,-9.625000,1.750000,0.0,0.0,0.0,0.0,0.0,0.0,0.0,0.0,0.0,-0.249023,-1.009277,0.028809,0.0,0.0,0.0,0.0,0.0,0.0,0.0,0.0,0.0
10.011040196,286,299,0.69397084,-0.69683949,-0.00170899,0.18115263,0.0,0.0,0.0,0.0,0.0,0.0,0.0,0.0,0.0,6.312500,-7.937500,2.812500,0.0,0.0,0.0,0.0,0.0,0.0,0.0,0.0,0.0,-0.230957,-1.001465,0.053223,0.0,0.0,0.0,0.0,0.0,0.0,0.0,0.0,0.0
10.032453138,287,300,0.69488660,-0.69555799,-0.00219727,0.18255651,0.0,0.0,0.0,0.0,0.0,0.0,0.0,0.0,0.0,8.000000,-8.750000,2.562500,0.0,0.0,0.0,0.0,0.0,0.0,0.0,0.0,0.0,-0.261719,-0.992188,0.034668,0.0,0.0,0.0,0.0,0.0,0.0,0.0,0.0,0.0
10.048026159,288,301,0.69585995,-0.69421200,-0.00274657,0.18395947,0.0,0.0,0.0,0.0,0.0,0.0,0.0,0.0,0.0,8.187500,-9.312500,1.625000,0.0,0.0,0.0,0.0,0.0,0.0,0.0,0.0,0.0,-0.260742,-0.963867,0.039551,0.0,0.0,0.0,0.0,0.0,0.0,0.0,0.0,0.0
10.071142967,288,301,0.69637202,-0.69332017,-0.00335704,0.18536960,0.0,0.0,0.0,0.0,0.0,0.0,0.0,0.0,0.0,5.500000,-8.937500,1.750000,0.0,0.0,0.0,0.0,0.0,0.0,0.0,0.0,0.0,-0.267578,-0.992188,0.032227,0.0,0.0,0.0,0.0,0.0,0.0,0.0,0.0,0.0
10.091842116,289,302,0.69711170,-0.69222869,-0.00390641,0.18665332,0.0,0.0,0.0,0.0,0.0,0.0,0.0,0.0,0.0,6.750000,-8.687500,1.687500,0.0,0.0,0.0,0.0,0.0,0.0,0.0,0.0,0.0,-0.262207,-0.968262,0.042480,0.0,0.0,0.0,0.0,0.0,0.0,0.0,0.0,0.0
10.109364755,289,302,0.69809101,-0.69107165,-0.00457785,0.18726442,0.0,0.0,0.0,0.0,0.0,0.0,0.0,0.0,0.0,7.750000,-6.312500,-1.125000,0.0,0.0,0.0,0.0,0.0,0.0,0.0,0.0,0.0,-0.248535,-0.962402,0.043945,0.0,0.0,0.0,0.0,0.0,0.0,0.0,0.0,0.0
10.131841870,290,303,0.69868652,-0.69032450,-0.00408946,0.18780977,0.0,0.0,0.0,0.0,0.0,0.0,0.0,0.0,0.0,5.312500,-0.875000,0.562500,0.0,0.0,0.0,0.0,0.0,0.0,0.0,0.0,0.0,-0.298828,-0.983398,0.056152,0.0,0.0,0.0,0.0,0.0,0.0,0.0,0.0,0.0
10.161754586,291,304,0.69914920,-0.68981094,-0.00354000,0.18798599,0.0,0.0,0.0,0.0,0.0,0.0,0.0,0.0,0.0,3.500000,1.437500,2.500000,0.0,0.0,0.0,0.0,0.0,0.0,0.0,0.0,0.0,-0.255859,-0.969727,0.063477,0.0,0.0,0.0,0.0,0.0,0.0,0.0,0.0,0.0
10.169024110,291,304,0.69953737,-0.68928327,-0.00335700,0.18848018,0.0,0.0,0.0,0.0,0.0,0.0,0.0,0.0,0.0,3.562500,-2.000000,0.625000,0.0,0.0,0.0,0.0,0.0,0.0,0.0,0.0,0.0,-0.289062,-1.009277,0.054688,0.0,0.0,0.0,0.0,0.0,0.0,0.0,0.0,0.0
10.190596621,292,305,0.70031855,-0.68817254,-0.00323487,0.18963655,0.0,0.0,0.0,0.0,0.0,0.0,0.0,0.0,0.0,6.875000,-5.375000,1.750000,0.0,0.0,0.0,0.0,0.0,0.0,0.0,0.0,0.0,-0.297852,-0.982422,0.065918,0.0,0.0,0.0,0.0,0.0,0.0,0.0,0.0,0.0
10.213267530,292,305,0.70111903,-0.68720285,-0.00360112,0.19018777,0.0,0.0,0.0,0.0,0.0,0.0,0.0,0.0,0.0,5.875000,-4.312500,0.437500,0.0,0.0,0.0,0.0,0.0,0.0,0.0,0.0,0.0,-0.253906,-0.986816,0.066895,0.0,0.0,0.0,0.0,0.0,0.0,0.0,0.0,0.0
10.229114074,293,306,0.70174515,-0.68642480,-0.00396742,0.19068034,0.0,0.0,0.0,0.0,0.0,0.0,0.0,0.0,0.0,4.750000,-4.125000,1.062500,0.0,0.0,0.0,0.0,0.0,0.0,0.0,0.0,0.0,-0.241211,-0.979004,0.064941,0.0,0.0,0.0,0.0,0.0,0.0,0.0,0.0,0.0
10.251411163,294,307,0.70217239,-0.68581441,-0.00451676,0.19129070,0.0,0.0,0.0,0.0,0.0,0.0,0.0,0.0,0.0,4.312500,-5.437500,1.437500,0.0,0.0,0.0,0.0,0.0,0.0,0.0,0.0,0.0,-0.244141,-1.000000,0.050293,0.0,0.0,0.0,0.0,0.0,0.0,0.0,0.0,0.0
10.273163655,294,307,0.70265793,-0.68514031,-0.00537126,0.19190032,0.0,0.0,0.0,0.0,0.0,0.0,0.0,0.0,0.0,4.125000,-6.437500,0.500000,0.0,0.0,0.0,0.0,0.0,0.0,0.0,0.0,0.0,-0.224121,-0.971680,0.052734,0.0,0.0,0.0,0.0,0.0,0.0,0.0,0.0,0.0
10.289348242,295,308,0.70293110,-0.68480394,-0.00622549,0.19207469,0.0,0.0,0.0,0.0,0.0,0.0,0.0,0.0,0.0,1.625000,-4.750000,-0.500000,0.0,0.0,0.0,0.0,0.0,0.0,0.0,0.0,0.0,-0.227539,-0.991211,0.059570,0.0,0.0,0.0,0.0,0.0,0.0,0.0,0.0,0.0
10.310955525,295,308,0.70319777,-0.68452070,-0.00701916,0.19208084,0.0,0.0,0.0,0.0,0.0,0.0,0.0,0.0,0.0,1.250000,-3.125000,-0.750000,0.0,0.0,0.0,0.0,0.0,0.0,0.0,0.0,0.0,-0.221680,-0.995605,0.066406,0.0,0.0,0.0,0.0,0.0,0.0,0.0,0.0,0.0
10.334282435,296,309,0.70338025,-0.68427595,-0.00756848,0.19226378,0.0,0.0,0.0,0.0,0.0,0.0,0.0,0.0,0.0,1.312500,-3.125000,-0.500000,0.0,0.0,0.0,0.0,0.0,0.0,0.0,0.0,0.0,-0.243164,-0.986328,0.061523,0.0,0.0,0.0,0.0,0.0,0.0,0.0,0.0,0.0
10.348484389,297,310,0.70338077,-0.68421541,-0.00830092,0.19244703,0.0,0.0,0.0,0.0,0.0,0.0,0.0,0.0,0.0,-0.312500,-4.062500,-1.187500,0.0,0.0,0.0,0.0,0.0,0.0,0.0,0.0,0.0,-0.243164,-0.996094,0.062988,0.0,0.0,0.0,0.0,0.0,0.0,0.0,0.0,0.0
10.371216804,297,310,0.70337225,-0.68408506,-0.00848392,0.19293298,0.0,0.0,0.0,0.0,0.0,0.0,0.0,0.0,0.0,-0.687500,-2.500000,1.375000,0.0,0.0,0.0,0.0,0.0,0.0,0.0,0.0,0.0,-0.261230,-1.001465,0.075684,0.0,0.0,0.0,0.0,0.0,0.0,0.0,0.0,0.0
